block_idx,color_cue,condition,correct,cue_present,draw_trajectory,goes_in,good_cue,hole,kind,layout,num_bounces,response,rt,score,show_feedback,time_elapsed,trial,trial_index,trial_type,trials_completed,wall_cue,pid
0.0,False,5.0,False,True,True,False,True,instruct_0,instruct,300_1.6,1.0,yes,266.0,0.0,True,96140.0,1.0,5.0,ball,1.0,False,0
0.0,False,5.0,True,True,True,False,True,instruct_4,instruct,300_1.6,1.0,no,3246.0,1.0,True,105544.0,2.0,6.0,ball,2.0,False,0
0.0,False,5.0,False,True,True,False,True,instruct_1,instruct,300_1.6,2.0,yes,1684.0,1.0,True,111450.0,3.0,7.0,ball,3.0,False,0
0.0,False,5.0,True,True,True,True,True,instruct_6,instruct,0_1.6,1.0,yes,1020.0,2.0,True,116659.0,4.0,8.0,ball,4.0,False,0
0.0,False,5.0,False,True,True,True,True,instruct_3,instruct,0_1.6,2.0,no,1639.0,2.0,True,123342.0,5.0,9.0,ball,5.0,False,0
0.0,False,5.0,True,True,True,True,True,instruct_2,instruct,0_1.6,1.0,yes,1729.0,3.0,True,129406.0,6.0,10.0,ball,6.0,False,0
0.0,False,5.0,True,True,True,False,True,instruct_5,instruct,300_1.6,2.0,no,1177.0,4.0,True,134805.0,7.0,11.0,ball,7.0,False,0
0.0,False,5.0,True,True,True,True,True,instruct_7,instruct,0_1.6,2.0,yes,1187.0,5.0,True,139812.0,8.0,12.0,ball,8.0,False,0
1.0,background,5.0,True,False,True,False,True,easy_5,easy,300_1.4,1.0,no,1109.0,1.0,True,152077.0,1.0,16.0,ball,9.0,False,0
1.0,background,5.0,True,True,True,True,True,easy_3,easy,0_1.4,1.0,yes,738.0,2.0,True,156341.0,2.0,17.0,ball,10.0,False,0
1.0,background,5.0,True,True,True,False,True,control_3,control,control,0.0,no,582.0,3.0,True,159929.0,3.0,18.0,ball,11.0,False,0
1.0,background,5.0,True,False,True,False,True,easy_0,easy,300_1.4,1.0,no,458.0,4.0,True,164058.0,4.0,19.0,ball,12.0,False,0
1.0,background,5.0,False,True,True,False,True,easy_13,easy,300_1.4,1.0,yes,1176.0,4.0,True,169098.0,5.0,20.0,ball,13.0,False,0
1.0,background,5.0,False,False,True,True,True,easy_6,easy,0_1.4,1.0,no,580.0,4.0,True,173284.0,6.0,21.0,ball,14.0,False,0
1.0,background,5.0,True,False,True,True,True,easy_14,easy,0_1.4,1.0,yes,536.0,5.0,True,177974.0,7.0,22.0,ball,15.0,False,0
1.0,background,5.0,True,False,True,True,True,easy_11,easy,0_1.4,1.0,yes,617.0,6.0,True,182374.0,8.0,23.0,ball,16.0,False,0
1.0,background,5.0,True,True,True,True,True,easy_2,easy,0_1.4,1.0,yes,548.0,7.0,True,186729.0,9.0,24.0,ball,17.0,False,0
1.0,background,5.0,True,True,True,False,True,easy_1,easy,300_1.4,1.0,no,740.0,8.0,True,191362.0,10.0,25.0,ball,18.0,False,0
1.0,background,5.0,True,False,True,True,True,easy_7,easy,0_1.4,1.0,yes,626.0,9.0,True,195604.0,11.0,26.0,ball,19.0,False,0
1.0,background,5.0,True,True,True,False,True,easy_12,easy,300_1.4,1.0,no,570.0,10.0,True,199879.0,12.0,27.0,ball,20.0,False,0
1.0,background,5.0,False,True,True,False,True,easy_4,easy,300_1.4,1.0,yes,569.0,10.0,True,203996.0,13.0,28.0,ball,21.0,False,0
2.0,background,5.0,True,True,True,False,True,easy_9,easy,300_1.4,1.0,no,884.0,1.0,True,210477.0,1.0,30.0,ball,22.0,False,0
2.0,background,5.0,True,True,True,False,True,easy_0,easy,300_1.4,1.0,no,603.0,2.0,True,214717.0,2.0,31.0,ball,23.0,False,0
2.0,background,5.0,False,True,True,True,True,easy_6,easy,0_1.4,1.0,no,886.0,2.0,True,219161.0,3.0,32.0,ball,24.0,False,0
2.0,background,5.0,True,False,True,True,True,standard_10,standard,0_2.2,1.0,yes,683.0,3.0,True,224359.0,4.0,33.0,ball,25.0,False,0
2.0,background,5.0,True,False,True,False,True,easy_13,easy,300_1.4,1.0,no,896.0,4.0,True,228982.0,5.0,34.0,ball,26.0,False,0
2.0,background,5.0,True,True,True,True,True,easy_14,easy,0_1.4,1.0,yes,1156.0,5.0,True,233865.0,6.0,35.0,ball,27.0,False,0
2.0,background,5.0,True,True,True,False,True,control_1,control,control,0.0,no,941.0,6.0,True,237578.0,7.0,36.0,ball,28.0,False,0
2.0,background,5.0,True,False,True,True,True,easy_3,easy,0_1.4,1.0,yes,997.0,7.0,True,242190.0,8.0,37.0,ball,29.0,False,0
2.0,background,5.0,True,False,True,False,True,easy_4,easy,300_1.4,1.0,no,841.0,8.0,True,246635.0,9.0,38.0,ball,30.0,False,0
2.0,background,5.0,True,True,True,False,True,standard_4,standard,200_2.2,1.0,no,580.0,9.0,True,251653.0,10.0,39.0,ball,31.0,False,0
2.0,background,5.0,True,True,True,True,True,standard_6,standard,0_2.2,1.0,yes,772.0,10.0,True,256929.0,11.0,40.0,ball,32.0,False,0
2.0,background,5.0,False,False,True,False,True,easy_8,easy,300_1.4,1.0,yes,728.0,10.0,True,261450.0,12.0,41.0,ball,33.0,False,0
2.0,background,5.0,True,True,True,True,True,easy_10,easy,0_1.4,1.0,yes,941.0,11.0,True,266142.0,13.0,42.0,ball,34.0,False,0
3.0,background,5.0,True,True,True,True,True,easy_11,easy,0_1.4,1.0,yes,772.0,1.0,True,279102.0,1.0,44.0,ball,35.0,False,0
3.0,background,5.0,True,False,True,False,True,easy_12,easy,300_1.4,1.0,no,1200.0,2.0,True,283883.0,2.0,45.0,ball,36.0,False,0
3.0,background,5.0,True,True,True,True,True,control_2,control,control,0.0,yes,704.0,3.0,True,292141.0,3.0,46.0,ball,37.0,False,0
3.0,background,5.0,True,False,True,False,True,easy_1,easy,300_1.4,1.0,no,930.0,4.0,True,298013.0,4.0,47.0,ball,38.0,False,0
3.0,background,5.0,True,True,True,True,True,easy_7,easy,0_1.4,1.0,yes,1594.0,5.0,True,303391.0,5.0,48.0,ball,39.0,False,0
3.0,background,5.0,False,True,True,False,True,standard_20,standard,200_2.2,1.0,yes,794.0,5.0,True,308792.0,6.0,49.0,ball,40.0,False,0
3.0,background,5.0,True,False,True,False,True,standard_12,standard,200_2.2,1.0,no,1032.0,6.0,True,314396.0,7.0,50.0,ball,41.0,False,0
3.0,background,5.0,True,False,True,False,True,standard_16,standard,200_2.2,1.0,no,1166.0,7.0,True,320492.0,8.0,51.0,ball,42.0,False,0
3.0,background,5.0,True,True,True,True,True,standard_14,standard,0_2.2,1.0,yes,514.0,8.0,True,325971.0,9.0,52.0,ball,43.0,False,0
3.0,background,5.0,True,False,True,False,True,standard_5,standard,200_2.2,2.0,no,694.0,9.0,True,331360.0,10.0,53.0,ball,44.0,False,0
3.0,background,5.0,True,True,True,False,True,easy_5,easy,300_1.4,1.0,no,738.0,10.0,True,335848.0,11.0,54.0,ball,45.0,False,0
3.0,background,5.0,True,False,True,True,True,easy_2,easy,0_1.4,1.0,yes,705.0,11.0,True,340414.0,12.0,55.0,ball,46.0,False,0
3.0,background,5.0,True,True,True,False,True,standard_0,standard,200_2.2,1.0,no,716.0,12.0,True,345546.0,13.0,56.0,ball,47.0,False,0
4.0,background,5.0,True,False,True,True,True,standard_22,standard,0_2.2,1.0,yes,851.0,1.0,True,352488.0,1.0,58.0,ball,48.0,False,0
4.0,background,5.0,True,False,True,True,True,easy_10,easy,0_1.4,1.0,yes,807.0,2.0,True,356783.0,2.0,59.0,ball,49.0,False,0
4.0,background,5.0,True,False,True,False,True,standard_9,standard,200_2.2,2.0,no,615.0,3.0,True,361780.0,3.0,60.0,ball,50.0,False,0
4.0,background,5.0,True,True,True,True,True,standard_11,standard,0_2.2,2.0,yes,738.0,4.0,True,366909.0,4.0,61.0,ball,51.0,False,0
4.0,background,5.0,True,False,True,True,True,standard_23,standard,0_2.2,2.0,yes,648.0,5.0,True,371928.0,5.0,62.0,ball,52.0,False,0
4.0,background,5.0,False,True,True,True,True,standard_15,standard,0_2.2,2.0,no,873.0,5.0,True,377114.0,6.0,63.0,ball,53.0,False,0
4.0,background,5.0,True,True,True,True,True,standard_7,standard,0_2.2,2.0,yes,570.0,6.0,True,382131.0,7.0,64.0,ball,54.0,False,0
4.0,background,5.0,False,False,True,False,True,standard_8,standard,200_2.2,1.0,yes,1469.0,6.0,True,388465.0,8.0,65.0,ball,55.0,False,0
4.0,background,5.0,True,True,True,True,True,standard_2,standard,0_2.2,1.0,yes,503.0,7.0,True,404059.0,9.0,66.0,ball,56.0,False,0
4.0,background,5.0,True,True,True,False,True,control_7,control,control,0.0,no,751.0,8.0,True,407815.0,10.0,67.0,ball,57.0,False,0
4.0,background,5.0,True,False,True,False,True,standard_1,standard,200_2.2,2.0,no,672.0,9.0,True,412857.0,11.0,68.0,ball,58.0,False,0
4.0,background,5.0,True,False,True,False,True,easy_9,easy,300_1.4,1.0,no,761.0,10.0,True,417219.0,12.0,69.0,ball,59.0,False,0
4.0,background,5.0,True,True,True,False,True,easy_8,easy,300_1.4,1.0,no,536.0,11.0,True,421315.0,13.0,70.0,ball,60.0,False,0
5.0,background,5.0,True,False,True,False,True,standard_4,standard,200_2.2,1.0,no,470.0,1.0,True,433141.0,1.0,72.0,ball,61.0,False,0
5.0,background,5.0,True,False,True,True,True,standard_6,standard,0_2.2,1.0,yes,592.0,2.0,True,438438.0,2.0,73.0,ball,62.0,False,0
5.0,background,5.0,False,False,True,True,True,standard_3,standard,0_2.2,2.0,no,738.0,2.0,True,443524.0,3.0,74.0,ball,63.0,False,0
5.0,background,5.0,True,True,True,True,True,control_6,control,control,0.0,yes,457.0,3.0,True,446796.0,4.0,75.0,ball,64.0,False,0
5.0,background,5.0,True,True,True,False,True,standard_13,standard,200_2.2,2.0,no,604.0,4.0,True,451826.0,5.0,76.0,ball,65.0,False,0
5.0,background,5.0,False,True,True,True,True,standard_19,standard,0_2.2,2.0,no,940.0,4.0,True,457159.0,6.0,77.0,ball,66.0,False,0
5.0,background,5.0,True,True,True,False,True,standard_16,standard,200_2.2,1.0,no,906.0,5.0,True,462502.0,7.0,78.0,ball,67.0,False,0
5.0,background,5.0,True,True,True,False,True,standard_12,standard,200_2.2,1.0,no,962.0,6.0,True,467993.0,8.0,79.0,ball,68.0,False,0
5.0,background,5.0,False,False,True,False,True,standard_20,standard,200_2.2,1.0,yes,615.0,6.0,True,473022.0,9.0,80.0,ball,69.0,False,0
5.0,background,5.0,True,True,True,True,True,standard_10,standard,0_2.2,1.0,yes,400.0,7.0,True,477881.0,10.0,81.0,ball,70.0,False,0
5.0,background,5.0,False,True,True,True,True,standard_18,standard,0_2.2,1.0,no,851.0,7.0,True,483158.0,11.0,82.0,ball,71.0,False,0
5.0,background,5.0,True,False,True,False,True,standard_17,standard,200_2.2,2.0,no,457.0,8.0,True,488063.0,12.0,83.0,ball,72.0,False,0
5.0,background,5.0,True,False,True,False,True,standard_21,standard,200_2.2,2.0,no,716.0,9.0,True,493249.0,13.0,84.0,ball,73.0,False,0
6.0,background,5.0,False,True,True,True,True,hard_7,hard,0_3.2,2.0,no,862.0,0.0,True,501360.0,1.0,86.0,ball,74.0,False,0
6.0,background,5.0,True,False,True,False,True,hard_1,hard,100_3.2,2.0,no,806.0,1.0,True,507750.0,2.0,87.0,ball,75.0,False,0
6.0,background,5.0,True,False,True,True,True,standard_2,standard,0_2.2,1.0,yes,457.0,2.0,True,512589.0,3.0,88.0,ball,76.0,False,0
6.0,background,5.0,True,False,True,False,True,standard_0,standard,200_2.2,1.0,no,627.0,3.0,True,517719.0,4.0,89.0,ball,77.0,False,0
6.0,background,5.0,False,True,True,True,True,hard_6,hard,0_3.2,2.0,no,379.0,3.0,True,523467.0,5.0,90.0,ball,78.0,False,0
6.0,background,5.0,True,True,True,False,True,standard_5,standard,200_2.2,2.0,no,615.0,4.0,True,528642.0,6.0,91.0,ball,79.0,False,0
6.0,background,5.0,True,True,True,False,True,standard_1,standard,200_2.2,2.0,no,816.0,5.0,True,533873.0,7.0,92.0,ball,80.0,False,0
6.0,background,5.0,True,True,True,False,True,standard_9,standard,200_2.2,2.0,no,434.0,6.0,True,538643.0,8.0,93.0,ball,81.0,False,0
6.0,background,5.0,True,True,True,True,True,control_0,control,control,0.0,yes,412.0,7.0,True,541826.0,9.0,94.0,ball,82.0,False,0
6.0,background,5.0,False,True,True,False,True,standard_8,standard,200_2.2,1.0,yes,548.0,7.0,True,546845.0,10.0,95.0,ball,83.0,False,0
6.0,background,5.0,True,False,True,True,True,standard_14,standard,0_2.2,1.0,yes,503.0,8.0,True,551851.0,11.0,96.0,ball,84.0,False,0
6.0,background,5.0,True,False,True,True,True,standard_15,standard,0_2.2,2.0,yes,784.0,9.0,True,557139.0,12.0,97.0,ball,85.0,False,0
6.0,background,5.0,False,True,True,True,True,standard_23,standard,0_2.2,2.0,no,660.0,9.0,True,563000.0,13.0,98.0,ball,86.0,False,0
7.0,background,5.0,True,True,True,True,True,control_4,control,control,0.0,yes,469.0,1.0,True,575474.0,1.0,100.0,ball,87.0,False,0
7.0,background,5.0,True,False,True,True,True,hard_14,hard,0_3.2,2.0,yes,1155.0,2.0,True,582102.0,2.0,101.0,ball,88.0,False,0
7.0,background,5.0,False,True,True,True,True,hard_11,hard,0_3.2,2.0,no,750.0,2.0,True,588245.0,3.0,102.0,ball,89.0,False,0
7.0,background,5.0,False,True,True,True,True,hard_10,hard,0_3.2,2.0,no,795.0,2.0,True,594419.0,4.0,103.0,ball,90.0,False,0
7.0,background,5.0,False,True,True,True,True,standard_22,standard,0_2.2,1.0,no,424.0,2.0,True,599315.0,5.0,104.0,ball,91.0,False,0
7.0,background,5.0,False,False,True,True,True,standard_7,standard,0_2.2,2.0,no,1166.0,2.0,True,604873.0,6.0,105.0,ball,92.0,False,0
7.0,background,5.0,True,True,True,True,True,standard_3,standard,0_2.2,2.0,yes,513.0,3.0,True,609846.0,7.0,106.0,ball,93.0,False,0
7.0,background,5.0,True,True,True,False,True,standard_17,standard,200_2.2,2.0,no,536.0,4.0,True,614829.0,8.0,107.0,ball,94.0,False,0
7.0,background,5.0,True,False,True,True,True,standard_19,standard,0_2.2,2.0,yes,763.0,5.0,True,619981.0,9.0,108.0,ball,95.0,False,0
7.0,background,5.0,True,True,True,False,True,hard_8,hard,100_3.2,2.0,no,734.0,6.0,True,626146.0,10.0,109.0,ball,96.0,False,0
7.0,background,5.0,True,False,True,False,True,hard_9,hard,100_3.2,2.0,no,682.0,7.0,True,632254.0,11.0,110.0,ball,97.0,False,0
7.0,background,5.0,False,False,True,True,True,standard_11,standard,0_2.2,2.0,no,1616.0,7.0,True,638285.0,12.0,111.0,ball,98.0,False,0
7.0,background,5.0,True,False,True,True,True,hard_3,hard,0_3.2,2.0,yes,1616.0,8.0,True,645529.0,13.0,112.0,ball,99.0,False,0
8.0,background,5.0,False,True,True,False,True,hard_13,hard,100_3.2,2.0,yes,818.0,0.0,True,653889.0,1.0,114.0,ball,100.0,False,0
8.0,background,5.0,False,True,True,False,True,hard_0,hard,100_3.2,2.0,yes,1199.0,0.0,True,660435.0,2.0,115.0,ball,101.0,False,0
8.0,background,5.0,True,False,True,False,True,hard_5,hard,100_3.2,2.0,no,1311.0,1.0,True,667141.0,3.0,116.0,ball,102.0,False,0
8.0,background,5.0,True,False,True,True,True,standard_18,standard,0_2.2,1.0,yes,930.0,2.0,True,672509.0,4.0,117.0,ball,103.0,False,0
8.0,background,5.0,True,True,True,False,True,hard_1,hard,100_3.2,2.0,no,952.0,3.0,True,678941.0,5.0,118.0,ball,104.0,False,0
8.0,background,5.0,True,False,True,True,True,hard_6,hard,0_3.2,2.0,yes,963.0,4.0,True,685490.0,6.0,119.0,ball,105.0,False,0
8.0,background,5.0,False,False,True,False,True,standard_13,standard,200_2.2,2.0,yes,705.0,4.0,True,690768.0,7.0,120.0,ball,106.0,False,0
8.0,background,5.0,True,False,True,False,True,hard_12,hard,100_3.2,2.0,no,694.0,5.0,True,696942.0,8.0,121.0,ball,107.0,False,0
8.0,background,5.0,False,False,True,True,True,hard_7,hard,0_3.2,2.0,no,637.0,5.0,True,703017.0,9.0,122.0,ball,108.0,False,0
8.0,background,5.0,True,False,True,False,True,hard_4,hard,100_3.2,2.0,no,940.0,6.0,True,709430.0,10.0,123.0,ball,109.0,False,0
8.0,background,5.0,False,True,True,True,True,hard_2,hard,0_3.2,2.0,no,559.0,6.0,True,715595.0,11.0,124.0,ball,110.0,False,0
8.0,background,5.0,True,True,True,False,True,control_5,control,control,0.0,no,660.0,7.0,True,719037.0,12.0,125.0,ball,111.0,False,0
8.0,background,5.0,True,True,True,False,True,standard_21,standard,200_2.2,2.0,no,1459.0,8.0,True,725002.0,13.0,126.0,ball,112.0,False,0
9.0,background,5.0,True,True,True,True,True,hard_3,hard,0_3.2,2.0,yes,1617.0,1.0,True,736442.0,1.0,128.0,ball,113.0,False,0
9.0,background,5.0,True,True,True,False,True,hard_4,hard,100_3.2,2.0,no,1278.0,2.0,True,743382.0,2.0,129.0,ball,114.0,False,0
9.0,background,5.0,True,False,True,False,True,hard_13,hard,100_3.2,2.0,no,513.0,3.0,True,750358.0,3.0,130.0,ball,115.0,False,0
9.0,background,5.0,False,False,True,True,True,hard_11,hard,0_3.2,2.0,no,648.0,3.0,True,756951.0,4.0,131.0,ball,116.0,False,0
9.0,background,5.0,False,True,True,False,True,hard_9,hard,100_3.2,2.0,yes,862.0,3.0,True,763296.0,5.0,132.0,ball,117.0,False,0
9.0,background,5.0,True,True,True,False,True,hard_5,hard,100_3.2,2.0,no,683.0,4.0,True,769347.0,6.0,133.0,ball,118.0,False,0
9.0,background,5.0,False,False,True,False,True,hard_0,hard,100_3.2,2.0,yes,975.0,4.0,True,775760.0,7.0,134.0,ball,119.0,False,0
9.0,background,5.0,True,False,True,False,True,hard_8,hard,100_3.2,2.0,no,1042.0,5.0,True,782365.0,8.0,135.0,ball,120.0,False,0
9.0,background,5.0,True,True,True,True,True,hard_14,hard,0_3.2,2.0,yes,784.0,6.0,True,788630.0,9.0,136.0,ball,121.0,False,0
9.0,background,5.0,True,False,True,True,True,hard_2,hard,0_3.2,2.0,yes,457.0,7.0,True,794492.0,10.0,137.0,ball,122.0,False,0
9.0,background,5.0,False,False,True,True,True,hard_10,hard,0_3.2,2.0,no,827.0,7.0,True,800702.0,11.0,138.0,ball,123.0,False,0
9.0,background,5.0,True,True,True,False,True,hard_12,hard,100_3.2,2.0,no,1065.0,8.0,True,807374.0,12.0,139.0,ball,124.0,False,0
10.0,background,5.0,False,True,True,True,True,critical_0,critical,0_3.2,2.0,no,840.0,0.0,False,817804.0,1.0,141.0,ball,125.0,False,0
10.0,background,5.0,False,True,True,False,True,critical_1,critical,100_3.2,2.0,yes,1280.0,0.0,False,821055.0,2.0,142.0,ball,126.0,False,0
10.0,background,5.0,False,True,True,True,True,critical_2,critical,0_3.2,2.0,no,862.0,0.0,False,823643.0,3.0,143.0,ball,127.0,False,0
10.0,background,5.0,True,True,True,False,True,critical_3,critical,100_3.2,2.0,no,771.0,1.0,False,826579.0,4.0,144.0,ball,128.0,False,0
10.0,background,5.0,True,True,True,True,False,critical_4,critical,0_3.2,2.0,yes,1279.0,2.0,False,829605.0,5.0,145.0,ball,129.0,False,0
10.0,background,5.0,True,True,True,False,True,filler_1,filler,200_2.2,2.0,no,997.0,3.0,False,832272.0,6.0,146.0,ball,130.0,False,0
10.0,background,5.0,True,True,True,False,True,filler_5,filler,200_2.2,2.0,no,963.0,4.0,False,834994.0,7.0,147.0,ball,131.0,False,0
10.0,background,5.0,False,True,True,False,False,critical_5,critical,100_3.2,2.0,yes,1391.0,4.0,False,838145.0,8.0,148.0,ball,132.0,False,0
10.0,background,5.0,True,True,True,False,True,filler_4,filler,200_2.2,1.0,no,2662.0,5.0,False,842802.0,9.0,149.0,ball,133.0,False,0
10.0,background,5.0,False,True,True,False,True,filler_0,filler,200_2.2,1.0,yes,423.0,5.0,False,847211.0,10.0,150.0,ball,134.0,False,0
10.0,background,5.0,False,True,True,True,False,critical_6,critical,0_3.2,2.0,no,1458.0,5.0,False,850542.0,11.0,151.0,ball,135.0,False,0
10.0,background,5.0,True,True,True,True,True,filler_2,filler,0_2.2,1.0,yes,817.0,6.0,False,853264.0,12.0,152.0,ball,136.0,False,0
10.0,background,5.0,True,True,True,True,True,filler_3,filler,0_2.2,2.0,yes,1718.0,7.0,False,856955.0,13.0,153.0,ball,137.0,False,0
10.0,background,5.0,True,True,True,False,False,critical_7,critical,100_3.2,2.0,no,1122.0,8.0,False,859654.0,14.0,154.0,ball,138.0,False,0
0.0,False,1.0,True,True,True,False,True,instruct_0,instruct,300_1.6,1.0,no,6348.0,1.0,True,128319.0,1.0,5.0,ball,1.0,False,1
0.0,False,1.0,True,True,True,False,True,instruct_1,instruct,300_1.6,2.0,no,6867.0,2.0,True,142821.0,2.0,6.0,ball,2.0,False,1
0.0,False,1.0,True,True,True,False,True,instruct_4,instruct,300_1.6,1.0,no,2875.0,3.0,True,151465.0,3.0,7.0,ball,3.0,False,1
0.0,False,1.0,True,True,True,True,True,instruct_6,instruct,0_1.6,1.0,yes,1894.0,4.0,True,160319.0,4.0,8.0,ball,4.0,False,1
0.0,False,1.0,True,True,True,True,True,instruct_2,instruct,0_1.6,1.0,yes,3638.0,5.0,True,170915.0,5.0,9.0,ball,5.0,False,1
0.0,False,1.0,True,True,True,False,True,instruct_5,instruct,300_1.6,2.0,no,2380.0,6.0,True,178618.0,6.0,10.0,ball,6.0,False,1
0.0,False,1.0,True,True,True,True,True,instruct_3,instruct,0_1.6,2.0,yes,1592.0,7.0,True,185852.0,7.0,11.0,ball,7.0,False,1
0.0,False,1.0,True,True,True,True,True,instruct_7,instruct,0_1.6,2.0,yes,1712.0,8.0,True,192226.0,8.0,12.0,ball,8.0,False,1
1.0,background,1.0,True,True,True,True,True,control_6,control,control,0.0,yes,1961.0,1.0,True,212134.0,1.0,16.0,ball,9.0,False,1
1.0,background,1.0,True,False,True,False,True,easy_1,easy,300_1.4,1.0,no,1973.0,2.0,True,218714.0,2.0,17.0,ball,10.0,False,1
1.0,background,1.0,True,True,True,True,True,easy_6,easy,0_1.4,1.0,yes,1534.0,3.0,True,224894.0,3.0,18.0,ball,11.0,False,1
1.0,background,1.0,True,False,True,True,True,easy_14,easy,0_1.4,1.0,yes,1624.0,4.0,True,231540.0,4.0,19.0,ball,12.0,False,1
1.0,background,1.0,True,False,True,False,True,easy_0,easy,300_1.4,1.0,no,1197.0,5.0,True,237694.0,5.0,20.0,ball,13.0,False,1
1.0,background,1.0,True,True,True,False,True,easy_9,easy,300_1.4,1.0,no,1208.0,6.0,True,243785.0,6.0,21.0,ball,14.0,False,1
1.0,background,1.0,True,True,True,True,True,easy_10,easy,0_1.4,1.0,yes,918.0,7.0,True,249224.0,7.0,22.0,ball,15.0,False,1
1.0,background,1.0,True,False,True,False,True,easy_13,easy,300_1.4,1.0,no,3879.0,8.0,True,257271.0,8.0,23.0,ball,16.0,False,1
1.0,background,1.0,False,True,True,False,True,easy_12,easy,300_1.4,1.0,yes,4150.0,8.0,True,265760.0,9.0,24.0,ball,17.0,False,1
1.0,background,1.0,False,True,True,False,True,easy_4,easy,300_1.4,1.0,yes,2078.0,8.0,True,272379.0,10.0,25.0,ball,18.0,False,1
1.0,background,1.0,True,True,True,False,True,easy_5,easy,300_1.4,1.0,no,1529.0,9.0,True,278227.0,11.0,26.0,ball,19.0,False,1
1.0,background,1.0,True,False,True,False,True,easy_8,easy,300_1.4,1.0,no,1748.0,10.0,True,285092.0,12.0,27.0,ball,20.0,False,1
1.0,background,1.0,True,False,True,True,True,easy_7,easy,0_1.4,1.0,yes,2070.0,11.0,True,291253.0,13.0,28.0,ball,21.0,False,1
2.0,background,1.0,True,False,True,True,True,standard_23,standard,0_2.2,2.0,yes,4636.0,1.0,True,304627.0,1.0,30.0,ball,22.0,False,1
2.0,background,1.0,True,False,True,True,True,easy_11,easy,0_1.4,1.0,yes,1070.0,2.0,True,309817.0,2.0,31.0,ball,23.0,False,1
2.0,background,1.0,True,True,True,True,True,easy_7,easy,0_1.4,1.0,yes,863.0,3.0,True,315303.0,3.0,32.0,ball,24.0,False,1
2.0,background,1.0,True,False,True,False,True,easy_9,easy,300_1.4,1.0,no,1001.0,4.0,True,320327.0,4.0,33.0,ball,25.0,False,1
2.0,background,1.0,True,True,True,True,True,easy_14,easy,0_1.4,1.0,yes,901.0,5.0,True,325446.0,5.0,34.0,ball,26.0,False,1
2.0,background,1.0,True,False,True,True,True,easy_6,easy,0_1.4,1.0,yes,890.0,6.0,True,330230.0,6.0,35.0,ball,27.0,False,1
2.0,background,1.0,True,True,True,True,True,control_4,control,control,0.0,yes,1078.0,7.0,True,334451.0,7.0,36.0,ball,28.0,False,1
2.0,background,1.0,True,False,True,False,True,easy_5,easy,300_1.4,1.0,no,955.0,8.0,True,339286.0,8.0,37.0,ball,29.0,False,1
2.0,background,1.0,True,True,True,True,True,standard_14,standard,0_2.2,1.0,yes,848.0,9.0,True,345132.0,9.0,38.0,ball,30.0,False,1
2.0,background,1.0,True,True,True,False,True,easy_1,easy,300_1.4,1.0,no,1071.0,10.0,True,350367.0,10.0,39.0,ball,31.0,False,1
2.0,background,1.0,True,True,True,True,True,easy_2,easy,0_1.4,1.0,yes,1979.0,11.0,True,356534.0,11.0,40.0,ball,32.0,False,1
2.0,background,1.0,True,True,True,True,True,standard_18,standard,0_2.2,1.0,yes,1167.0,12.0,True,362584.0,12.0,41.0,ball,33.0,False,1
2.0,background,1.0,True,True,True,True,True,easy_3,easy,0_1.4,1.0,yes,1984.0,13.0,True,368480.0,13.0,42.0,ball,34.0,False,1
3.0,background,1.0,True,False,True,True,True,easy_10,easy,0_1.4,1.0,yes,712.0,1.0,True,376071.0,1.0,44.0,ball,35.0,False,1
3.0,background,1.0,False,False,True,False,True,standard_12,standard,200_2.2,1.0,yes,1492.0,1.0,True,382427.0,2.0,45.0,ball,36.0,False,1
3.0,background,1.0,True,False,True,True,True,standard_6,standard,0_2.2,1.0,yes,652.0,2.0,True,387847.0,3.0,46.0,ball,37.0,False,1
3.0,background,1.0,True,True,True,True,True,standard_22,standard,0_2.2,1.0,yes,652.0,3.0,True,393308.0,4.0,47.0,ball,38.0,False,1
3.0,background,1.0,True,True,True,False,True,easy_8,easy,300_1.4,1.0,no,1900.0,4.0,True,399365.0,5.0,48.0,ball,39.0,False,1
3.0,background,1.0,True,False,True,True,True,standard_11,standard,0_2.2,2.0,yes,2583.0,5.0,True,406850.0,6.0,49.0,ball,40.0,False,1
3.0,background,1.0,False,True,True,False,True,standard_21,standard,200_2.2,2.0,yes,1446.0,5.0,True,414203.0,7.0,50.0,ball,41.0,False,1
3.0,background,1.0,True,True,True,False,True,easy_0,easy,300_1.4,1.0,no,1336.0,6.0,True,419541.0,8.0,51.0,ball,42.0,False,1
3.0,background,1.0,True,False,True,False,True,easy_12,easy,300_1.4,1.0,no,1794.0,7.0,True,425348.0,9.0,52.0,ball,43.0,False,1
3.0,background,1.0,True,True,True,False,True,easy_13,easy,300_1.4,1.0,no,1211.0,8.0,True,430554.0,10.0,53.0,ball,44.0,False,1
3.0,background,1.0,True,True,True,False,True,standard_5,standard,200_2.2,2.0,no,686.0,9.0,True,435815.0,11.0,54.0,ball,45.0,False,1
3.0,background,1.0,True,True,True,False,True,control_3,control,control,0.0,no,843.0,10.0,True,439629.0,12.0,55.0,ball,46.0,False,1
3.0,background,1.0,True,False,True,False,True,easy_4,easy,300_1.4,1.0,no,1476.0,11.0,True,445023.0,13.0,56.0,ball,47.0,False,1
4.0,background,1.0,True,False,True,True,True,easy_3,easy,0_1.4,1.0,yes,1101.0,1.0,True,453775.0,1.0,58.0,ball,48.0,False,1
4.0,background,1.0,False,False,True,True,True,standard_3,standard,0_2.2,2.0,no,1922.0,1.0,True,460432.0,2.0,59.0,ball,49.0,False,1
4.0,background,1.0,False,False,True,False,True,standard_4,standard,200_2.2,1.0,yes,1718.0,1.0,True,466943.0,3.0,60.0,ball,50.0,False,1
4.0,background,1.0,True,True,True,True,True,standard_19,standard,0_2.2,2.0,yes,1614.0,2.0,True,473302.0,4.0,61.0,ball,51.0,False,1
4.0,background,1.0,True,True,True,False,True,standard_1,standard,200_2.2,2.0,no,974.0,3.0,True,479369.0,5.0,62.0,ball,52.0,False,1
4.0,background,1.0,True,True,True,True,True,standard_10,standard,0_2.2,1.0,yes,1105.0,4.0,True,486474.0,6.0,63.0,ball,53.0,False,1
4.0,background,1.0,True,False,True,True,True,easy_2,easy,0_1.4,1.0,yes,712.0,5.0,True,491446.0,7.0,64.0,ball,54.0,False,1
4.0,background,1.0,True,False,True,False,True,standard_17,standard,200_2.2,2.0,no,678.0,6.0,True,497007.0,8.0,65.0,ball,55.0,False,1
4.0,background,1.0,True,True,True,True,True,control_0,control,control,0.0,yes,1090.0,7.0,True,501060.0,9.0,66.0,ball,56.0,False,1
4.0,background,1.0,True,True,True,True,True,standard_2,standard,0_2.2,1.0,yes,2859.0,8.0,True,508742.0,10.0,67.0,ball,57.0,False,1
4.0,background,1.0,True,True,True,True,True,easy_11,easy,0_1.4,1.0,yes,611.0,9.0,True,513370.0,11.0,68.0,ball,58.0,False,1
4.0,background,1.0,False,False,True,True,True,standard_7,standard,0_2.2,2.0,no,608.0,9.0,True,518710.0,12.0,69.0,ball,59.0,False,1
4.0,background,1.0,True,False,True,False,True,standard_9,standard,200_2.2,2.0,no,1680.0,10.0,True,525523.0,13.0,70.0,ball,60.0,False,1
5.0,background,1.0,True,False,True,False,True,standard_20,standard,200_2.2,1.0,no,1263.0,1.0,True,534221.0,1.0,72.0,ball,61.0,False,1
5.0,background,1.0,True,False,True,True,True,standard_18,standard,0_2.2,1.0,yes,1248.0,2.0,True,539910.0,2.0,73.0,ball,62.0,False,1
5.0,background,1.0,True,True,True,False,True,standard_16,standard,200_2.2,1.0,no,2489.0,3.0,True,547227.0,3.0,74.0,ball,63.0,False,1
5.0,background,1.0,True,False,True,False,True,standard_0,standard,200_2.2,1.0,no,1010.0,4.0,True,553184.0,4.0,75.0,ball,64.0,False,1
5.0,background,1.0,True,False,True,False,True,standard_5,standard,200_2.2,2.0,no,761.0,5.0,True,558786.0,5.0,76.0,ball,65.0,False,1
5.0,background,1.0,True,True,True,False,True,control_5,control,control,0.0,no,744.0,6.0,True,562522.0,6.0,77.0,ball,66.0,False,1
5.0,background,1.0,True,False,True,True,True,standard_14,standard,0_2.2,1.0,yes,1348.0,7.0,True,568515.0,7.0,78.0,ball,67.0,False,1
5.0,background,1.0,True,True,True,False,True,standard_12,standard,200_2.2,1.0,no,1194.0,8.0,True,574554.0,8.0,79.0,ball,68.0,False,1
5.0,background,1.0,True,True,True,True,True,standard_23,standard,0_2.2,2.0,yes,1907.0,9.0,True,581317.0,9.0,80.0,ball,69.0,False,1
5.0,background,1.0,True,True,True,True,True,standard_6,standard,0_2.2,1.0,yes,1313.0,10.0,True,587473.0,10.0,81.0,ball,70.0,False,1
5.0,background,1.0,True,True,True,False,True,standard_8,standard,200_2.2,1.0,no,1254.0,11.0,True,593647.0,11.0,82.0,ball,71.0,False,1
5.0,background,1.0,True,True,True,True,True,standard_15,standard,0_2.2,2.0,yes,1993.0,12.0,True,600255.0,12.0,83.0,ball,72.0,False,1
5.0,background,1.0,True,False,True,False,True,standard_13,standard,200_2.2,2.0,no,1059.0,13.0,True,606164.0,13.0,84.0,ball,73.0,False,1
6.0,background,1.0,True,True,True,False,True,standard_17,standard,200_2.2,2.0,no,639.0,1.0,True,613970.0,1.0,86.0,ball,74.0,False,1
6.0,background,1.0,True,True,True,False,True,hard_4,hard,100_3.2,2.0,no,973.0,2.0,True,621244.0,2.0,87.0,ball,75.0,False,1
6.0,background,1.0,True,True,True,True,True,standard_11,standard,0_2.2,2.0,yes,3309.0,3.0,True,629323.0,3.0,88.0,ball,76.0,False,1
6.0,background,1.0,True,False,True,True,True,standard_2,standard,0_2.2,1.0,yes,1237.0,4.0,True,635228.0,4.0,89.0,ball,77.0,False,1
6.0,background,1.0,True,True,True,True,True,control_2,control,control,0.0,yes,685.0,5.0,True,638628.0,5.0,90.0,ball,78.0,False,1
6.0,background,1.0,True,True,True,False,True,standard_9,standard,200_2.2,2.0,no,622.0,6.0,True,643714.0,6.0,91.0,ball,79.0,False,1
6.0,background,1.0,True,True,True,True,True,standard_3,standard,0_2.2,2.0,yes,1574.0,7.0,True,650012.0,7.0,92.0,ball,80.0,False,1
6.0,background,1.0,False,True,True,True,True,hard_10,hard,0_3.2,2.0,no,1045.0,7.0,True,656587.0,8.0,93.0,ball,81.0,False,1
6.0,background,1.0,False,False,True,True,True,standard_19,standard,0_2.2,2.0,no,1290.0,7.0,True,662475.0,9.0,94.0,ball,82.0,False,1
6.0,background,1.0,True,False,True,False,True,standard_21,standard,200_2.2,2.0,no,1022.0,8.0,True,668368.0,10.0,95.0,ball,83.0,False,1
6.0,background,1.0,True,True,True,False,True,standard_4,standard,200_2.2,1.0,no,1125.0,9.0,True,674048.0,11.0,96.0,ball,84.0,False,1
6.0,background,1.0,True,False,True,True,True,standard_22,standard,0_2.2,1.0,yes,647.0,10.0,True,679245.0,12.0,97.0,ball,85.0,False,1
6.0,background,1.0,True,False,True,False,True,hard_9,hard,100_3.2,2.0,no,743.0,11.0,True,687041.0,13.0,98.0,ball,86.0,False,1
7.0,background,1.0,True,False,True,True,True,standard_10,standard,0_2.2,1.0,yes,966.0,1.0,True,695797.0,1.0,100.0,ball,87.0,False,1
7.0,background,1.0,True,True,True,True,True,standard_7,standard,0_2.2,2.0,yes,2609.0,2.0,True,703102.0,2.0,101.0,ball,88.0,False,1
7.0,background,1.0,True,False,True,False,True,standard_1,standard,200_2.2,2.0,no,971.0,3.0,True,708823.0,3.0,102.0,ball,89.0,False,1
7.0,background,1.0,True,True,True,False,True,standard_13,standard,200_2.2,2.0,no,736.0,4.0,True,714339.0,4.0,103.0,ball,90.0,False,1
7.0,background,1.0,True,False,True,False,True,hard_13,hard,100_3.2,2.0,no,859.0,5.0,True,720941.0,5.0,104.0,ball,91.0,False,1
7.0,background,1.0,False,False,True,True,True,hard_7,hard,0_3.2,2.0,no,806.0,5.0,True,727630.0,6.0,105.0,ball,92.0,False,1
7.0,background,1.0,True,True,True,True,True,hard_3,hard,0_3.2,2.0,yes,1970.0,6.0,True,735458.0,7.0,106.0,ball,93.0,False,1
7.0,background,1.0,True,False,True,False,True,hard_8,hard,100_3.2,2.0,no,1444.0,7.0,True,743616.0,8.0,107.0,ball,94.0,False,1
7.0,background,1.0,True,True,True,False,True,control_1,control,control,0.0,no,1088.0,8.0,True,747586.0,9.0,108.0,ball,95.0,False,1
7.0,background,1.0,False,True,True,True,True,hard_14,hard,0_3.2,2.0,no,1184.0,8.0,True,755629.0,10.0,109.0,ball,96.0,False,1
7.0,background,1.0,False,True,True,True,True,hard_2,hard,0_3.2,2.0,no,1052.0,8.0,True,762606.0,11.0,110.0,ball,97.0,False,1
7.0,background,1.0,True,False,True,True,True,standard_15,standard,0_2.2,2.0,yes,1377.0,9.0,True,768767.0,12.0,111.0,ball,98.0,False,1
7.0,background,1.0,True,True,True,False,True,standard_20,standard,200_2.2,1.0,no,1127.0,10.0,True,774472.0,13.0,112.0,ball,99.0,False,1
8.0,background,1.0,True,True,True,False,True,standard_0,standard,200_2.2,1.0,no,1120.0,1.0,True,782164.0,1.0,114.0,ball,100.0,False,1
8.0,background,1.0,True,True,True,False,True,hard_9,hard,100_3.2,2.0,no,628.0,2.0,True,788584.0,2.0,115.0,ball,101.0,False,1
8.0,background,1.0,True,False,True,False,True,standard_8,standard,200_2.2,1.0,no,2048.0,3.0,True,795251.0,3.0,116.0,ball,102.0,False,1
8.0,background,1.0,True,False,True,False,True,standard_16,standard,200_2.2,1.0,no,1901.0,4.0,True,801791.0,4.0,117.0,ball,103.0,False,1
8.0,background,1.0,True,False,True,False,True,hard_1,hard,100_3.2,2.0,no,4190.0,5.0,True,811649.0,5.0,118.0,ball,104.0,False,1
8.0,background,1.0,True,True,True,True,True,hard_11,hard,0_3.2,2.0,yes,1417.0,6.0,True,820152.0,6.0,119.0,ball,105.0,False,1
8.0,background,1.0,False,False,True,True,True,hard_10,hard,0_3.2,2.0,no,3697.0,6.0,True,829616.0,7.0,120.0,ball,106.0,False,1
8.0,background,1.0,True,False,True,False,True,hard_4,hard,100_3.2,2.0,no,722.0,7.0,True,836115.0,8.0,121.0,ball,107.0,False,1
8.0,background,1.0,True,False,True,False,True,hard_5,hard,100_3.2,2.0,no,1053.0,8.0,True,842983.0,9.0,122.0,ball,108.0,False,1
8.0,background,1.0,True,False,True,False,True,hard_12,hard,100_3.2,2.0,no,673.0,9.0,True,849804.0,10.0,123.0,ball,109.0,False,1
8.0,background,1.0,False,True,True,True,True,hard_6,hard,0_3.2,2.0,no,1743.0,9.0,True,857340.0,11.0,124.0,ball,110.0,False,1
8.0,background,1.0,False,True,True,False,True,hard_0,hard,100_3.2,2.0,yes,1006.0,9.0,True,864029.0,12.0,125.0,ball,111.0,False,1
8.0,background,1.0,False,True,True,False,True,control_7,control,control,0.0,yes,922.0,9.0,True,867757.0,13.0,126.0,ball,112.0,False,1
9.0,background,1.0,False,False,True,False,True,hard_0,hard,100_3.2,2.0,yes,3535.0,0.0,True,879276.0,1.0,128.0,ball,113.0,False,1
9.0,background,1.0,True,False,True,True,True,hard_11,hard,0_3.2,2.0,yes,3323.0,1.0,True,889538.0,2.0,129.0,ball,114.0,False,1
9.0,background,1.0,False,False,True,True,True,hard_6,hard,0_3.2,2.0,no,1062.0,1.0,True,897628.0,3.0,130.0,ball,115.0,False,1
9.0,background,1.0,True,True,True,False,True,hard_8,hard,100_3.2,2.0,no,993.0,2.0,True,904774.0,4.0,131.0,ball,116.0,False,1
9.0,background,1.0,True,True,True,False,True,hard_12,hard,100_3.2,2.0,no,871.0,3.0,True,911476.0,5.0,132.0,ball,117.0,False,1
9.0,background,1.0,True,True,True,False,True,hard_13,hard,100_3.2,2.0,no,943.0,4.0,True,918115.0,6.0,133.0,ball,118.0,False,1
9.0,background,1.0,False,False,True,True,True,hard_2,hard,0_3.2,2.0,no,1290.0,4.0,True,925210.0,7.0,134.0,ball,119.0,False,1
9.0,background,1.0,True,True,True,False,True,hard_5,hard,100_3.2,2.0,no,1023.0,5.0,True,932301.0,8.0,135.0,ball,120.0,False,1
9.0,background,1.0,False,True,True,True,True,hard_7,hard,0_3.2,2.0,no,2647.0,5.0,True,940714.0,9.0,136.0,ball,121.0,False,1
9.0,background,1.0,True,False,True,True,True,hard_14,hard,0_3.2,2.0,yes,1888.0,6.0,True,948507.0,10.0,137.0,ball,122.0,False,1
9.0,background,1.0,True,False,True,True,True,hard_3,hard,0_3.2,2.0,yes,4972.0,7.0,True,959457.0,11.0,138.0,ball,123.0,False,1
9.0,background,1.0,True,True,True,False,True,hard_1,hard,100_3.2,2.0,no,2510.0,8.0,True,967907.0,12.0,139.0,ball,124.0,False,1
10.0,background,1.0,False,True,True,True,True,critical_0,critical,0_3.2,2.0,no,1390.0,0.0,False,974955.0,1.0,141.0,ball,125.0,False,1
10.0,background,1.0,True,True,True,False,True,critical_1,critical,100_3.2,2.0,no,3581.0,1.0,False,980943.0,2.0,142.0,ball,126.0,False,1
10.0,background,1.0,True,True,True,True,True,critical_2,critical,0_3.2,2.0,yes,3302.0,2.0,False,987577.0,3.0,143.0,ball,127.0,False,1
10.0,background,1.0,False,True,True,False,True,critical_3,critical,100_3.2,2.0,yes,2811.0,2.0,False,995502.0,4.0,144.0,ball,128.0,False,1
10.0,background,1.0,True,True,True,True,False,critical_4,critical,0_3.2,2.0,yes,2533.0,3.0,False,1000521.0,5.0,145.0,ball,129.0,False,1
10.0,background,1.0,True,True,True,True,True,filler_2,filler,0_2.2,1.0,yes,1151.0,4.0,False,1003700.0,6.0,146.0,ball,130.0,False,1
10.0,background,1.0,True,True,True,False,True,filler_5,filler,200_2.2,2.0,no,1044.0,5.0,False,1006874.0,7.0,147.0,ball,131.0,False,1
10.0,background,1.0,False,True,True,False,False,critical_5,critical,100_3.2,2.0,yes,5066.0,5.0,False,1014144.0,8.0,148.0,ball,132.0,False,1
10.0,background,1.0,False,True,True,True,True,filler_3,filler,0_2.2,2.0,no,2891.0,5.0,False,1019180.0,9.0,149.0,ball,133.0,False,1
10.0,background,1.0,True,True,True,False,True,filler_4,filler,200_2.2,1.0,no,2610.0,6.0,False,1023833.0,10.0,150.0,ball,134.0,False,1
10.0,background,1.0,False,True,True,True,False,critical_6,critical,0_3.2,2.0,no,1343.0,6.0,False,1027152.0,11.0,151.0,ball,135.0,False,1
10.0,background,1.0,True,True,True,False,True,filler_1,filler,200_2.2,2.0,no,3491.0,7.0,False,1033154.0,12.0,152.0,ball,136.0,False,1
10.0,background,1.0,True,True,True,False,True,filler_0,filler,200_2.2,1.0,no,1954.0,8.0,False,1037165.0,13.0,153.0,ball,137.0,False,1
10.0,background,1.0,True,True,True,False,False,critical_7,critical,100_3.2,2.0,no,3871.0,9.0,False,1043039.0,14.0,154.0,ball,138.0,False,1
0.0,False,19.0,True,True,True,True,True,instruct_6,instruct,0_1.6,1.0,yes,2293.0,1.0,True,138190.0,1.0,5.0,ball,1.0,False,2
0.0,False,19.0,False,True,True,True,True,instruct_7,instruct,0_1.6,2.0,no,4441.0,1.0,True,148022.0,2.0,6.0,ball,2.0,False,2
0.0,False,19.0,False,True,True,False,True,instruct_1,instruct,300_1.6,2.0,yes,2183.0,1.0,True,154984.0,3.0,7.0,ball,3.0,False,2
0.0,False,19.0,False,True,True,False,True,instruct_0,instruct,300_1.6,1.0,yes,3841.0,1.0,True,164837.0,4.0,8.0,ball,4.0,False,2
0.0,False,19.0,True,True,True,True,True,instruct_2,instruct,0_1.6,1.0,yes,1902.0,2.0,True,171696.0,5.0,9.0,ball,5.0,False,2
0.0,False,19.0,True,True,True,False,True,instruct_4,instruct,300_1.6,1.0,no,1601.0,3.0,True,178039.0,6.0,10.0,ball,6.0,False,2
0.0,False,19.0,True,True,True,False,True,instruct_5,instruct,300_1.6,2.0,no,1486.0,4.0,True,184262.0,7.0,11.0,ball,7.0,False,2
0.0,False,19.0,False,True,True,True,True,instruct_3,instruct,0_1.6,2.0,no,3400.0,4.0,True,191566.0,8.0,12.0,ball,8.0,False,2
1.0,background,19.0,False,False,True,False,True,easy_1,easy,300_1.4,1.0,yes,1277.0,0.0,True,217127.0,1.0,16.0,ball,9.0,False,2
1.0,background,19.0,False,True,True,True,True,easy_7,easy,0_1.4,1.0,no,1510.0,0.0,True,225566.0,2.0,17.0,ball,10.0,False,2
1.0,background,19.0,False,False,True,False,True,easy_5,easy,300_1.4,1.0,yes,2749.0,0.0,True,231632.0,3.0,18.0,ball,11.0,False,2
1.0,background,19.0,True,True,True,False,True,easy_8,easy,300_1.4,1.0,no,1857.0,1.0,True,236998.0,4.0,19.0,ball,12.0,False,2
1.0,background,19.0,True,True,True,False,True,easy_0,easy,300_1.4,1.0,no,1936.0,2.0,True,242318.0,5.0,20.0,ball,13.0,False,2
1.0,background,19.0,True,False,True,True,True,easy_11,easy,0_1.4,1.0,yes,1537.0,3.0,True,249039.0,6.0,21.0,ball,14.0,False,2
1.0,background,19.0,True,True,True,True,True,easy_10,easy,0_1.4,1.0,yes,2776.0,4.0,True,256849.0,7.0,22.0,ball,15.0,False,2
1.0,background,19.0,True,False,True,False,True,easy_9,easy,300_1.4,1.0,no,2654.0,5.0,True,264597.0,8.0,23.0,ball,16.0,False,2
1.0,background,19.0,True,True,True,True,True,easy_14,easy,0_1.4,1.0,yes,3224.0,6.0,True,273622.0,9.0,24.0,ball,17.0,False,2
1.0,background,19.0,False,False,True,False,True,easy_13,easy,300_1.4,1.0,yes,1402.0,6.0,True,279463.0,10.0,25.0,ball,18.0,False,2
1.0,background,19.0,True,False,True,True,True,easy_2,easy,0_1.4,1.0,yes,3225.0,7.0,True,286561.0,11.0,26.0,ball,19.0,False,2
1.0,background,19.0,True,True,True,True,True,control_2,control,control,0.0,yes,1637.0,8.0,True,291700.0,12.0,27.0,ball,20.0,False,2
1.0,background,19.0,True,True,True,False,True,easy_4,easy,300_1.4,1.0,no,1395.0,9.0,True,297958.0,13.0,28.0,ball,21.0,False,2
2.0,background,19.0,False,True,True,False,True,easy_9,easy,300_1.4,1.0,yes,1338.0,0.0,True,306262.0,1.0,30.0,ball,22.0,False,2
2.0,background,19.0,True,True,True,False,True,standard_17,standard,200_2.2,2.0,no,1651.0,1.0,True,314396.0,2.0,31.0,ball,23.0,False,2
2.0,background,19.0,True,False,True,False,True,easy_0,easy,300_1.4,1.0,no,1321.0,2.0,True,320318.0,3.0,32.0,ball,24.0,False,2
2.0,background,19.0,True,True,True,True,True,easy_11,easy,0_1.4,1.0,yes,1509.0,3.0,True,326245.0,4.0,33.0,ball,25.0,False,2
2.0,background,19.0,False,True,True,True,True,easy_6,easy,0_1.4,1.0,no,1494.0,3.0,True,332478.0,5.0,34.0,ball,26.0,False,2
2.0,background,19.0,True,False,True,False,True,easy_4,easy,300_1.4,1.0,no,1604.0,4.0,True,338517.0,6.0,35.0,ball,27.0,False,2
2.0,background,19.0,True,True,True,True,True,control_4,control,control,0.0,yes,3056.0,5.0,True,345377.0,7.0,36.0,ball,28.0,False,2
2.0,background,19.0,False,True,True,True,True,standard_7,standard,0_2.2,2.0,no,1412.0,5.0,True,352543.0,8.0,37.0,ball,29.0,False,2
2.0,background,19.0,True,True,True,True,True,easy_3,easy,0_1.4,1.0,yes,965.0,6.0,True,357109.0,9.0,38.0,ball,30.0,False,2
2.0,background,19.0,False,True,True,False,True,easy_13,easy,300_1.4,1.0,yes,2508.0,6.0,True,364309.0,10.0,39.0,ball,31.0,False,2
2.0,background,19.0,False,False,True,True,True,standard_19,standard,0_2.2,2.0,no,2931.0,6.0,True,371965.0,11.0,40.0,ball,32.0,False,2
2.0,background,19.0,False,False,True,False,True,easy_12,easy,300_1.4,1.0,yes,2155.0,6.0,True,378869.0,12.0,41.0,ball,33.0,False,2
2.0,background,19.0,False,False,True,False,True,easy_8,easy,300_1.4,1.0,yes,868.0,6.0,True,383995.0,13.0,42.0,ball,34.0,False,2
3.0,background,19.0,True,True,True,False,True,easy_1,easy,300_1.4,1.0,no,1563.0,1.0,True,392420.0,1.0,44.0,ball,35.0,False,2
3.0,background,19.0,False,False,True,False,True,standard_13,standard,200_2.2,2.0,yes,1562.0,1.0,True,398956.0,2.0,45.0,ball,36.0,False,2
3.0,background,19.0,True,True,True,True,True,standard_11,standard,0_2.2,2.0,yes,1300.0,2.0,True,406238.0,3.0,46.0,ball,37.0,False,2
3.0,background,19.0,True,False,True,True,True,easy_14,easy,0_1.4,1.0,yes,2404.0,3.0,True,412988.0,4.0,47.0,ball,38.0,False,2
3.0,background,19.0,True,False,True,True,True,easy_10,easy,0_1.4,1.0,yes,1252.0,4.0,True,418420.0,5.0,48.0,ball,39.0,False,2
3.0,background,19.0,True,True,True,True,True,standard_18,standard,0_2.2,1.0,yes,926.0,5.0,True,424262.0,6.0,49.0,ball,40.0,False,2
3.0,background,19.0,True,True,True,False,True,control_7,control,control,0.0,no,2731.0,6.0,True,430733.0,7.0,50.0,ball,41.0,False,2
3.0,background,19.0,False,False,True,True,True,standard_14,standard,0_2.2,1.0,no,1811.0,6.0,True,438589.0,8.0,51.0,ball,42.0,False,2
3.0,background,19.0,True,True,True,True,True,easy_2,easy,0_1.4,1.0,yes,1055.0,7.0,True,444642.0,9.0,52.0,ball,43.0,False,2
3.0,background,19.0,True,True,True,True,True,standard_15,standard,0_2.2,2.0,yes,776.0,8.0,True,450049.0,10.0,53.0,ball,44.0,False,2
3.0,background,19.0,False,False,True,False,True,standard_16,standard,200_2.2,1.0,yes,1398.0,8.0,True,456358.0,11.0,54.0,ball,45.0,False,2
3.0,background,19.0,False,False,True,True,True,easy_7,easy,0_1.4,1.0,no,1487.0,8.0,True,461902.0,12.0,55.0,ball,46.0,False,2
3.0,background,19.0,True,True,True,False,True,easy_5,easy,300_1.4,1.0,no,1634.0,9.0,True,467583.0,13.0,56.0,ball,47.0,False,2
4.0,background,19.0,True,True,True,True,True,standard_2,standard,0_2.2,1.0,yes,1459.0,1.0,True,477062.0,1.0,58.0,ball,48.0,False,2
4.0,background,19.0,True,False,True,True,True,standard_10,standard,0_2.2,1.0,yes,1712.0,2.0,True,483256.0,2.0,59.0,ball,49.0,False,2
4.0,background,19.0,True,False,True,True,True,standard_3,standard,0_2.2,2.0,yes,1027.0,3.0,True,489172.0,3.0,60.0,ball,50.0,False,2
4.0,background,19.0,False,True,True,False,True,standard_8,standard,200_2.2,1.0,yes,1125.0,3.0,True,495310.0,4.0,61.0,ball,51.0,False,2
4.0,background,19.0,True,True,True,False,True,control_5,control,control,0.0,no,1977.0,4.0,True,500839.0,5.0,62.0,ball,52.0,False,2
4.0,background,19.0,True,False,True,False,True,standard_1,standard,200_2.2,2.0,no,1394.0,5.0,True,507260.0,6.0,63.0,ball,53.0,False,2
4.0,background,19.0,True,False,True,False,True,standard_12,standard,200_2.2,1.0,no,1742.0,6.0,True,513767.0,7.0,64.0,ball,54.0,False,2
4.0,background,19.0,True,False,True,True,True,easy_3,easy,0_1.4,1.0,yes,1508.0,7.0,True,520598.0,8.0,65.0,ball,55.0,False,2
4.0,background,19.0,False,False,True,True,True,easy_6,easy,0_1.4,1.0,no,1756.0,7.0,True,526878.0,9.0,66.0,ball,56.0,False,2
4.0,background,19.0,False,True,True,False,True,easy_12,easy,300_1.4,1.0,yes,1533.0,7.0,True,532540.0,10.0,67.0,ball,57.0,False,2
4.0,background,19.0,False,False,True,False,True,standard_20,standard,200_2.2,1.0,yes,1426.0,7.0,True,538982.0,11.0,68.0,ball,58.0,False,2
4.0,background,19.0,False,True,True,False,True,standard_9,standard,200_2.2,2.0,yes,2097.0,7.0,True,547102.0,12.0,69.0,ball,59.0,False,2
4.0,background,19.0,False,True,True,False,True,standard_21,standard,200_2.2,2.0,yes,2303.0,7.0,True,554878.0,13.0,70.0,ball,60.0,False,2
5.0,background,19.0,True,False,True,True,True,standard_23,standard,0_2.2,2.0,yes,1012.0,1.0,True,563503.0,1.0,72.0,ball,61.0,False,2
5.0,background,19.0,True,True,True,True,True,standard_14,standard,0_2.2,1.0,yes,1179.0,2.0,True,569661.0,2.0,73.0,ball,62.0,False,2
5.0,background,19.0,True,True,True,True,True,standard_19,standard,0_2.2,2.0,yes,1050.0,3.0,True,576149.0,3.0,74.0,ball,63.0,False,2
5.0,background,19.0,True,False,True,False,True,standard_5,standard,200_2.2,2.0,no,3782.0,4.0,True,585066.0,4.0,75.0,ball,64.0,False,2
5.0,background,19.0,False,True,True,True,True,standard_22,standard,0_2.2,1.0,no,1641.0,4.0,True,591592.0,5.0,76.0,ball,65.0,False,2
5.0,background,19.0,False,False,True,True,True,standard_7,standard,0_2.2,2.0,no,1660.0,4.0,True,597481.0,6.0,77.0,ball,66.0,False,2
5.0,background,19.0,False,False,True,False,True,standard_0,standard,200_2.2,1.0,yes,1230.0,4.0,True,603382.0,7.0,78.0,ball,67.0,False,2
5.0,background,19.0,True,True,True,False,True,standard_16,standard,200_2.2,1.0,no,1567.0,5.0,True,609838.0,8.0,79.0,ball,68.0,False,2
5.0,background,19.0,True,False,True,False,True,standard_17,standard,200_2.2,2.0,no,1936.0,6.0,True,617879.0,9.0,80.0,ball,69.0,False,2
5.0,background,19.0,True,False,True,True,True,standard_11,standard,0_2.2,2.0,yes,2156.0,7.0,True,625070.0,10.0,81.0,ball,70.0,False,2
5.0,background,19.0,True,True,True,True,True,standard_6,standard,0_2.2,1.0,yes,830.0,8.0,True,630694.0,11.0,82.0,ball,71.0,False,2
5.0,background,19.0,True,True,True,False,True,standard_4,standard,200_2.2,1.0,no,2012.0,9.0,True,637575.0,12.0,83.0,ball,72.0,False,2
5.0,background,19.0,True,True,True,True,True,control_6,control,control,0.0,yes,763.0,10.0,True,641666.0,13.0,84.0,ball,73.0,False,2
6.0,background,19.0,False,True,True,False,True,standard_13,standard,200_2.2,2.0,yes,932.0,0.0,True,650038.0,1.0,86.0,ball,74.0,False,2
6.0,background,19.0,True,True,True,True,True,standard_10,standard,0_2.2,1.0,yes,2899.0,1.0,True,657879.0,2.0,87.0,ball,75.0,False,2
6.0,background,19.0,True,False,True,False,True,standard_8,standard,200_2.2,1.0,no,1261.0,2.0,True,664101.0,3.0,88.0,ball,76.0,False,2
6.0,background,19.0,True,True,True,True,True,standard_3,standard,0_2.2,2.0,yes,1616.0,3.0,True,670841.0,4.0,89.0,ball,77.0,False,2
6.0,background,19.0,True,True,True,True,True,control_0,control,control,0.0,yes,848.0,4.0,True,675114.0,5.0,90.0,ball,78.0,False,2
6.0,background,19.0,False,False,True,True,True,hard_14,hard,0_3.2,2.0,no,2073.0,4.0,True,683350.0,6.0,91.0,ball,79.0,False,2
6.0,background,19.0,False,True,True,False,True,standard_20,standard,200_2.2,1.0,yes,1467.0,4.0,True,689949.0,7.0,92.0,ball,80.0,False,2
6.0,background,19.0,True,False,True,True,True,standard_15,standard,0_2.2,2.0,yes,860.0,5.0,True,695702.0,8.0,93.0,ball,81.0,False,2
6.0,background,19.0,True,False,True,True,True,standard_18,standard,0_2.2,1.0,yes,1229.0,6.0,True,701759.0,9.0,94.0,ball,82.0,False,2
6.0,background,19.0,True,True,True,True,True,hard_11,hard,0_3.2,2.0,yes,1093.0,7.0,True,709327.0,10.0,95.0,ball,83.0,False,2
6.0,background,19.0,False,True,True,False,True,standard_1,standard,200_2.2,2.0,yes,1270.0,7.0,True,715541.0,11.0,96.0,ball,84.0,False,2
6.0,background,19.0,False,True,True,True,True,hard_7,hard,0_3.2,2.0,no,1461.0,7.0,True,722845.0,12.0,97.0,ball,85.0,False,2
6.0,background,19.0,False,False,True,False,True,standard_21,standard,200_2.2,2.0,yes,2493.0,7.0,True,730256.0,13.0,98.0,ball,86.0,False,2
7.0,background,19.0,False,False,True,True,True,standard_2,standard,0_2.2,1.0,no,1026.0,0.0,True,739337.0,1.0,100.0,ball,87.0,False,2
7.0,background,19.0,True,True,True,False,True,hard_4,hard,100_3.2,2.0,no,1202.0,1.0,True,746454.0,2.0,101.0,ball,88.0,False,2
7.0,background,19.0,True,True,True,False,True,standard_5,standard,200_2.2,2.0,no,1072.0,2.0,True,752103.0,3.0,102.0,ball,89.0,False,2
7.0,background,19.0,True,True,True,False,True,hard_0,hard,100_3.2,2.0,no,1720.0,3.0,True,759622.0,4.0,103.0,ball,90.0,False,2
7.0,background,19.0,False,True,True,True,True,hard_2,hard,0_3.2,2.0,no,2139.0,3.0,True,768230.0,5.0,104.0,ball,91.0,False,2
7.0,background,19.0,True,False,True,False,True,standard_4,standard,200_2.2,1.0,no,965.0,4.0,True,817099.0,6.0,105.0,ball,92.0,False,2
7.0,background,19.0,True,True,True,True,True,standard_23,standard,0_2.2,2.0,yes,1989.0,5.0,True,823469.0,7.0,106.0,ball,93.0,False,2
7.0,background,19.0,False,False,True,False,True,standard_9,standard,200_2.2,2.0,yes,1237.0,5.0,True,829893.0,8.0,107.0,ball,94.0,False,2
7.0,background,19.0,False,False,True,True,True,hard_3,hard,0_3.2,2.0,no,1523.0,5.0,True,837518.0,9.0,108.0,ball,95.0,False,2
7.0,background,19.0,False,True,True,False,True,standard_12,standard,200_2.2,1.0,yes,2854.0,5.0,True,845414.0,10.0,109.0,ball,96.0,False,2
7.0,background,19.0,True,False,True,False,True,hard_1,hard,100_3.2,2.0,no,1660.0,6.0,True,852744.0,11.0,110.0,ball,97.0,False,2
7.0,background,19.0,True,True,True,False,True,control_3,control,control,0.0,no,1306.0,7.0,True,857152.0,12.0,111.0,ball,98.0,False,2
7.0,background,19.0,True,False,True,False,True,hard_5,hard,100_3.2,2.0,no,1544.0,8.0,True,864703.0,13.0,112.0,ball,99.0,False,2
8.0,background,19.0,True,False,True,False,True,hard_12,hard,100_3.2,2.0,no,1100.0,1.0,True,874013.0,1.0,114.0,ball,100.0,False,2
8.0,background,19.0,True,True,True,True,True,hard_10,hard,0_3.2,2.0,yes,1670.0,2.0,True,924855.0,2.0,115.0,ball,101.0,False,2
8.0,background,19.0,True,True,True,True,True,hard_6,hard,0_3.2,2.0,yes,1261.0,3.0,True,931773.0,3.0,116.0,ball,102.0,False,2
8.0,background,19.0,True,True,True,True,True,hard_14,hard,0_3.2,2.0,yes,1240.0,4.0,True,938880.0,4.0,117.0,ball,103.0,False,2
8.0,background,19.0,True,False,True,False,True,hard_8,hard,100_3.2,2.0,no,860.0,5.0,True,945664.0,5.0,118.0,ball,104.0,False,2
8.0,background,19.0,True,False,True,False,True,hard_13,hard,100_3.2,2.0,no,1284.0,6.0,True,952634.0,6.0,119.0,ball,105.0,False,2
8.0,background,19.0,True,False,True,True,True,standard_6,standard,0_2.2,1.0,yes,1230.0,7.0,True,958656.0,7.0,120.0,ball,106.0,False,2
8.0,background,19.0,True,False,True,True,True,standard_22,standard,0_2.2,1.0,yes,914.0,8.0,True,964492.0,8.0,121.0,ball,107.0,False,2
8.0,background,19.0,False,True,True,False,True,hard_9,hard,100_3.2,2.0,yes,993.0,8.0,True,971936.0,9.0,122.0,ball,108.0,False,2
8.0,background,19.0,True,True,True,False,True,control_1,control,control,0.0,no,1506.0,9.0,True,976707.0,10.0,123.0,ball,109.0,False,2
8.0,background,19.0,True,False,True,True,True,hard_11,hard,0_3.2,2.0,yes,1214.0,10.0,True,983912.0,11.0,124.0,ball,110.0,False,2
8.0,background,19.0,False,True,True,False,True,standard_0,standard,200_2.2,1.0,yes,974.0,10.0,True,989798.0,12.0,125.0,ball,111.0,False,2
8.0,background,19.0,True,False,True,True,True,hard_7,hard,0_3.2,2.0,yes,1501.0,11.0,True,997329.0,13.0,126.0,ball,112.0,False,2
9.0,background,19.0,True,False,True,True,True,hard_10,hard,0_3.2,2.0,yes,1613.0,1.0,True,1006964.0,1.0,128.0,ball,113.0,False,2
9.0,background,19.0,False,True,True,False,True,hard_8,hard,100_3.2,2.0,yes,869.0,1.0,True,1014238.0,2.0,129.0,ball,114.0,False,2
9.0,background,19.0,False,True,True,False,True,hard_13,hard,100_3.2,2.0,yes,932.0,1.0,True,1021721.0,3.0,130.0,ball,115.0,False,2
9.0,background,19.0,False,False,True,True,True,hard_6,hard,0_3.2,2.0,no,1660.0,1.0,True,1029430.0,4.0,131.0,ball,116.0,False,2
9.0,background,19.0,True,True,True,False,True,hard_12,hard,100_3.2,2.0,no,1263.0,2.0,True,1036368.0,5.0,132.0,ball,117.0,False,2
9.0,background,19.0,False,True,True,True,True,hard_3,hard,0_3.2,2.0,no,1022.0,2.0,True,1043435.0,6.0,133.0,ball,118.0,False,2
9.0,background,19.0,True,False,True,False,True,hard_9,hard,100_3.2,2.0,no,1505.0,3.0,True,1050958.0,7.0,134.0,ball,119.0,False,2
9.0,background,19.0,True,True,True,False,True,hard_5,hard,100_3.2,2.0,no,1059.0,4.0,True,1057911.0,8.0,135.0,ball,120.0,False,2
9.0,background,19.0,True,False,True,True,True,hard_2,hard,0_3.2,2.0,yes,1087.0,5.0,True,1065663.0,9.0,136.0,ball,121.0,False,2
9.0,background,19.0,False,False,True,False,True,hard_0,hard,100_3.2,2.0,yes,1891.0,5.0,True,1074001.0,10.0,137.0,ball,122.0,False,2
9.0,background,19.0,False,True,True,False,True,hard_1,hard,100_3.2,2.0,yes,824.0,5.0,True,1080693.0,11.0,138.0,ball,123.0,False,2
9.0,background,19.0,False,False,True,False,True,hard_4,hard,100_3.2,2.0,yes,821.0,5.0,True,1087686.0,12.0,139.0,ball,124.0,False,2
10.0,background,19.0,True,True,True,False,True,critical_6,critical,100_3.2,2.0,no,1376.0,1.0,False,1093938.0,1.0,141.0,ball,125.0,False,2
10.0,background,19.0,False,True,True,True,True,critical_7,critical,0_3.2,2.0,no,1426.0,1.0,False,1100111.0,2.0,142.0,ball,126.0,False,2
10.0,background,19.0,True,True,True,False,True,critical_0,critical,100_3.2,2.0,no,946.0,2.0,False,1106429.0,3.0,143.0,ball,127.0,False,2
10.0,background,19.0,True,True,True,True,True,critical_1,critical,0_3.2,2.0,yes,1336.0,3.0,False,1113020.0,4.0,144.0,ball,128.0,False,2
10.0,background,19.0,False,True,True,False,False,critical_2,critical,100_3.2,2.0,yes,1603.0,3.0,False,1118585.0,5.0,145.0,ball,129.0,False,2
10.0,background,19.0,False,True,True,False,True,filler_0,filler,200_2.2,1.0,yes,3333.0,3.0,False,1126202.0,6.0,146.0,ball,130.0,False,2
10.0,background,19.0,False,True,True,False,True,filler_5,filler,200_2.2,2.0,yes,989.0,3.0,False,1129971.0,7.0,147.0,ball,131.0,False,2
10.0,background,19.0,False,True,True,True,False,critical_3,critical,0_3.2,2.0,no,1242.0,3.0,False,1133513.0,8.0,148.0,ball,132.0,False,2
10.0,background,19.0,False,True,True,False,True,filler_4,filler,200_2.2,1.0,yes,724.0,3.0,False,1136825.0,9.0,149.0,ball,133.0,False,2
10.0,background,19.0,False,True,True,False,True,filler_1,filler,200_2.2,2.0,yes,792.0,3.0,False,1139835.0,10.0,150.0,ball,134.0,False,2
10.0,background,19.0,True,True,True,False,False,critical_4,critical,100_3.2,2.0,no,1276.0,4.0,False,1143457.0,11.0,151.0,ball,135.0,False,2
10.0,background,19.0,True,True,True,True,True,filler_2,filler,0_2.2,1.0,yes,1141.0,5.0,False,1146513.0,12.0,152.0,ball,136.0,False,2
10.0,background,19.0,False,True,True,True,True,filler_3,filler,0_2.2,2.0,no,820.0,5.0,False,1149258.0,13.0,153.0,ball,137.0,False,2
10.0,background,19.0,False,True,True,True,False,critical_5,critical,0_3.2,2.0,no,2024.0,5.0,False,1153836.0,14.0,154.0,ball,138.0,False,2
0.0,False,4.0,True,True,True,False,True,instruct_1,instruct,300_1.6,2.0,no,8773.0,1.0,True,109553.0,1.0,5.0,ball,1.0,False,3
0.0,False,4.0,True,True,True,False,True,instruct_5,instruct,300_1.6,2.0,no,5726.0,2.0,True,120433.0,2.0,6.0,ball,2.0,False,3
0.0,False,4.0,True,True,True,True,True,instruct_6,instruct,0_1.6,1.0,yes,6013.0,3.0,True,131129.0,3.0,7.0,ball,3.0,False,3
0.0,False,4.0,True,True,True,True,True,instruct_2,instruct,0_1.6,1.0,yes,4141.0,4.0,True,139880.0,4.0,8.0,ball,4.0,False,3
0.0,False,4.0,False,True,True,True,True,instruct_3,instruct,0_1.6,2.0,no,5374.0,4.0,True,149504.0,5.0,9.0,ball,5.0,False,3
0.0,False,4.0,True,True,True,True,True,instruct_7,instruct,0_1.6,2.0,yes,6773.0,5.0,True,160697.0,6.0,10.0,ball,6.0,False,3
0.0,False,4.0,True,True,True,False,True,instruct_4,instruct,300_1.6,1.0,no,5221.0,6.0,True,170449.0,7.0,11.0,ball,7.0,False,3
0.0,False,4.0,True,True,True,False,True,instruct_0,instruct,300_1.6,1.0,no,5269.0,7.0,True,179993.0,8.0,12.0,ball,8.0,False,3
1.0,background,4.0,True,True,True,False,True,easy_8,easy,300_1.4,1.0,no,4313.0,1.0,False,201245.0,1.0,16.0,ball,9.0,False,3
1.0,background,4.0,False,False,True,True,True,easy_11,easy,0_1.4,1.0,no,3964.0,1.0,False,209243.0,2.0,17.0,ball,10.0,False,3
1.0,background,4.0,True,True,True,True,True,easy_3,easy,0_1.4,1.0,yes,1965.0,2.0,False,213524.0,3.0,18.0,ball,11.0,False,3
1.0,background,4.0,True,True,True,False,True,easy_5,easy,300_1.4,1.0,no,2325.0,3.0,False,217851.0,4.0,19.0,ball,12.0,False,3
1.0,background,4.0,False,True,True,False,True,easy_1,easy,300_1.4,1.0,yes,2253.0,3.0,False,222027.0,5.0,20.0,ball,13.0,False,3
1.0,background,4.0,True,False,True,False,True,easy_12,easy,300_1.4,1.0,no,4301.0,4.0,False,228315.0,6.0,21.0,ball,14.0,False,3
1.0,background,4.0,True,False,True,True,True,easy_14,easy,0_1.4,1.0,yes,2373.0,5.0,False,232931.0,7.0,22.0,ball,15.0,False,3
1.0,background,4.0,False,True,True,False,True,easy_4,easy,300_1.4,1.0,yes,1693.0,5.0,False,236587.0,8.0,23.0,ball,16.0,False,3
1.0,background,4.0,True,True,True,False,True,easy_9,easy,300_1.4,1.0,no,4501.0,6.0,False,243172.0,9.0,24.0,ball,17.0,False,3
1.0,background,4.0,True,False,True,True,True,easy_7,easy,0_1.4,1.0,yes,2614.0,7.0,False,247691.0,10.0,25.0,ball,18.0,False,3
1.0,background,4.0,True,False,True,False,True,easy_13,easy,300_1.4,1.0,no,2405.0,8.0,False,251972.0,11.0,26.0,ball,19.0,False,3
1.0,background,4.0,True,True,True,True,True,control_6,control,control,0.0,yes,1501.0,9.0,False,255644.0,12.0,27.0,ball,20.0,False,3
1.0,background,4.0,True,False,True,False,True,easy_0,easy,300_1.4,1.0,no,2527.0,10.0,False,260381.0,13.0,28.0,ball,21.0,False,3
2.0,background,4.0,False,True,True,True,True,easy_10,easy,0_1.4,1.0,no,2030.0,0.0,False,268789.0,1.0,30.0,ball,22.0,False,3
2.0,background,4.0,True,False,True,False,True,standard_4,standard,200_2.2,1.0,no,2877.0,1.0,False,274581.0,2.0,31.0,ball,23.0,False,3
2.0,background,4.0,False,False,True,True,True,easy_6,easy,0_1.4,1.0,no,2517.0,1.0,False,279149.0,3.0,32.0,ball,24.0,False,3
2.0,background,4.0,True,True,True,False,True,standard_12,standard,200_2.2,1.0,no,1524.0,2.0,False,282693.0,4.0,33.0,ball,25.0,False,3
2.0,background,4.0,True,True,True,True,True,easy_7,easy,0_1.4,1.0,yes,1654.0,3.0,False,286253.0,5.0,34.0,ball,26.0,False,3
2.0,background,4.0,True,False,True,False,True,easy_5,easy,300_1.4,1.0,no,3221.0,4.0,False,291373.0,6.0,35.0,ball,27.0,False,3
2.0,background,4.0,True,True,True,True,True,easy_2,easy,0_1.4,1.0,yes,1485.0,5.0,False,294868.0,7.0,36.0,ball,28.0,False,3
2.0,background,4.0,True,False,True,False,True,easy_4,easy,300_1.4,1.0,no,1509.0,6.0,False,298229.0,8.0,37.0,ball,29.0,False,3
2.0,background,4.0,True,True,True,False,True,easy_12,easy,300_1.4,1.0,no,1967.0,7.0,False,302069.0,9.0,38.0,ball,30.0,False,3
2.0,background,4.0,True,False,True,False,True,easy_8,easy,300_1.4,1.0,no,1797.0,8.0,False,305948.0,10.0,39.0,ball,31.0,False,3
2.0,background,4.0,True,True,True,False,True,easy_0,easy,300_1.4,1.0,no,4069.0,9.0,False,311812.0,11.0,40.0,ball,32.0,False,3
2.0,background,4.0,True,True,True,False,True,control_1,control,control,0.0,no,845.0,10.0,False,314412.0,12.0,41.0,ball,33.0,False,3
2.0,background,4.0,True,True,True,False,True,standard_20,standard,200_2.2,1.0,no,2573.0,11.0,False,318797.0,13.0,42.0,ball,34.0,False,3
3.0,background,4.0,True,True,True,True,True,easy_11,easy,0_1.4,1.0,yes,1669.0,1.0,False,325837.0,1.0,44.0,ball,35.0,False,3
3.0,background,4.0,True,True,True,True,True,easy_14,easy,0_1.4,1.0,yes,1637.0,2.0,False,329373.0,2.0,45.0,ball,36.0,False,3
3.0,background,4.0,False,False,True,True,True,standard_23,standard,0_2.2,2.0,no,1373.0,2.0,False,332565.0,3.0,46.0,ball,37.0,False,3
3.0,background,4.0,False,False,True,False,True,easy_1,easy,300_1.4,1.0,yes,5398.0,2.0,False,339766.0,4.0,47.0,ball,38.0,False,3
3.0,background,4.0,True,True,True,False,True,easy_13,easy,300_1.4,1.0,no,2973.0,3.0,False,344412.0,5.0,48.0,ball,39.0,False,3
3.0,background,4.0,False,True,True,True,True,standard_14,standard,0_2.2,1.0,no,2613.0,3.0,False,348924.0,6.0,49.0,ball,40.0,False,3
3.0,background,4.0,False,False,True,True,True,easy_3,easy,0_1.4,1.0,no,3316.0,3.0,False,353965.0,7.0,50.0,ball,41.0,False,3
3.0,background,4.0,True,False,True,False,True,standard_9,standard,200_2.2,2.0,no,2309.0,4.0,False,358333.0,8.0,51.0,ball,42.0,False,3
3.0,background,4.0,False,False,True,True,True,standard_18,standard,0_2.2,1.0,no,1661.0,4.0,False,361949.0,9.0,52.0,ball,43.0,False,3
3.0,background,4.0,True,True,True,True,True,standard_2,standard,0_2.2,1.0,yes,1333.0,5.0,False,365261.0,10.0,53.0,ball,44.0,False,3
3.0,background,4.0,True,False,True,False,True,easy_9,easy,300_1.4,1.0,no,1501.0,6.0,False,368693.0,11.0,54.0,ball,45.0,False,3
3.0,background,4.0,True,True,True,False,True,standard_21,standard,200_2.2,2.0,no,1901.0,7.0,False,373245.0,12.0,55.0,ball,46.0,False,3
3.0,background,4.0,True,True,True,True,True,control_2,control,control,0.0,yes,853.0,8.0,False,375909.0,13.0,56.0,ball,47.0,False,3
4.0,background,4.0,True,False,True,True,True,easy_2,easy,0_1.4,1.0,yes,1317.0,1.0,False,382013.0,1.0,58.0,ball,48.0,False,3
4.0,background,4.0,True,True,True,False,True,standard_8,standard,200_2.2,1.0,no,1053.0,2.0,False,384972.0,2.0,59.0,ball,49.0,False,3
4.0,background,4.0,True,True,True,False,True,standard_17,standard,200_2.2,2.0,no,1309.0,3.0,False,388013.0,3.0,60.0,ball,50.0,False,3
4.0,background,4.0,False,True,True,True,True,easy_6,easy,0_1.4,1.0,no,1109.0,3.0,False,390836.0,4.0,61.0,ball,51.0,False,3
4.0,background,4.0,True,True,True,True,True,control_4,control,control,0.0,yes,733.0,4.0,False,393459.0,5.0,62.0,ball,52.0,False,3
4.0,background,4.0,True,False,True,False,True,standard_16,standard,200_2.2,1.0,no,2069.0,5.0,False,397316.0,6.0,63.0,ball,53.0,False,3
4.0,background,4.0,True,True,True,False,True,standard_5,standard,200_2.2,2.0,no,3093.0,6.0,False,402108.0,7.0,64.0,ball,54.0,False,3
4.0,background,4.0,True,False,True,False,True,standard_1,standard,200_2.2,2.0,no,1037.0,7.0,False,405011.0,8.0,65.0,ball,55.0,False,3
4.0,background,4.0,True,False,True,True,True,standard_19,standard,0_2.2,2.0,yes,1686.0,8.0,False,408532.0,9.0,66.0,ball,56.0,False,3
4.0,background,4.0,False,False,True,True,True,standard_7,standard,0_2.2,2.0,no,908.0,8.0,False,411148.0,10.0,67.0,ball,57.0,False,3
4.0,background,4.0,False,False,True,True,True,easy_10,easy,0_1.4,1.0,no,3110.0,8.0,False,416052.0,11.0,68.0,ball,58.0,False,3
4.0,background,4.0,True,True,True,False,True,standard_0,standard,200_2.2,1.0,no,2069.0,9.0,False,419924.0,12.0,69.0,ball,59.0,False,3
4.0,background,4.0,True,False,True,True,True,standard_6,standard,0_2.2,1.0,yes,1269.0,10.0,False,423235.0,13.0,70.0,ball,60.0,False,3
5.0,background,4.0,False,True,True,True,True,standard_23,standard,0_2.2,2.0,no,1590.0,0.0,False,429268.0,1.0,72.0,ball,61.0,False,3
5.0,background,4.0,True,False,True,False,True,standard_13,standard,200_2.2,2.0,no,1001.0,1.0,False,432476.0,2.0,73.0,ball,62.0,False,3
5.0,background,4.0,True,True,True,False,True,control_3,control,control,0.0,no,1069.0,2.0,False,435307.0,3.0,74.0,ball,63.0,False,3
5.0,background,4.0,True,False,True,True,True,standard_15,standard,0_2.2,2.0,yes,1885.0,3.0,False,439316.0,4.0,75.0,ball,64.0,False,3
5.0,background,4.0,False,True,True,True,True,standard_18,standard,0_2.2,1.0,no,1653.0,3.0,False,444156.0,5.0,76.0,ball,65.0,False,3
5.0,background,4.0,False,False,True,True,True,standard_11,standard,0_2.2,2.0,no,1701.0,3.0,False,447636.0,6.0,77.0,ball,66.0,False,3
5.0,background,4.0,False,False,True,False,True,standard_20,standard,200_2.2,1.0,yes,990.0,3.0,False,450380.0,7.0,78.0,ball,67.0,False,3
5.0,background,4.0,True,True,True,False,True,standard_4,standard,200_2.2,1.0,no,878.0,4.0,False,453692.0,8.0,79.0,ball,68.0,False,3
5.0,background,4.0,True,False,True,False,True,standard_21,standard,200_2.2,2.0,no,1829.0,5.0,False,457347.0,9.0,80.0,ball,69.0,False,3
5.0,background,4.0,True,True,True,True,True,standard_10,standard,0_2.2,1.0,yes,1581.0,6.0,False,460755.0,10.0,81.0,ball,70.0,False,3
5.0,background,4.0,True,True,True,True,True,standard_22,standard,0_2.2,1.0,yes,1325.0,7.0,False,463908.0,11.0,82.0,ball,71.0,False,3
5.0,background,4.0,False,True,True,True,True,standard_3,standard,0_2.2,2.0,no,1245.0,7.0,False,466964.0,12.0,83.0,ball,72.0,False,3
5.0,background,4.0,True,False,True,False,True,standard_12,standard,200_2.2,1.0,no,1037.0,8.0,False,469788.0,13.0,84.0,ball,73.0,False,3
6.0,background,4.0,False,False,True,False,True,standard_0,standard,200_2.2,1.0,yes,2668.0,0.0,False,476588.0,1.0,86.0,ball,74.0,False,3
6.0,background,4.0,False,False,True,True,True,standard_2,standard,0_2.2,1.0,no,1749.0,0.0,False,480139.0,2.0,87.0,ball,75.0,False,3
6.0,background,4.0,True,False,True,False,True,standard_17,standard,200_2.2,2.0,no,1109.0,1.0,False,483140.0,3.0,88.0,ball,76.0,False,3
6.0,background,4.0,True,True,True,True,True,standard_6,standard,0_2.2,1.0,yes,830.0,2.0,False,485868.0,4.0,89.0,ball,77.0,False,3
6.0,background,4.0,False,True,True,True,True,standard_19,standard,0_2.2,2.0,no,1570.0,2.0,False,489228.0,5.0,90.0,ball,78.0,False,3
6.0,background,4.0,True,False,True,True,True,standard_14,standard,0_2.2,1.0,yes,1340.0,3.0,False,492548.0,6.0,91.0,ball,79.0,False,3
6.0,background,4.0,True,True,True,True,True,control_0,control,control,0.0,yes,997.0,4.0,False,495292.0,7.0,92.0,ball,80.0,False,3
6.0,background,4.0,True,True,True,False,True,hard_0,hard,100_3.2,2.0,no,1725.0,5.0,False,498780.0,8.0,93.0,ball,81.0,False,3
6.0,background,4.0,False,True,True,True,True,standard_7,standard,0_2.2,2.0,no,1669.0,5.0,False,502300.0,9.0,94.0,ball,82.0,False,3
6.0,background,4.0,False,True,True,True,True,hard_2,hard,0_3.2,2.0,no,1166.0,5.0,False,505340.0,10.0,95.0,ball,83.0,False,3
6.0,background,4.0,True,True,True,False,True,standard_9,standard,200_2.2,2.0,no,1061.0,6.0,False,508172.0,11.0,96.0,ball,84.0,False,3
6.0,background,4.0,True,True,True,False,True,standard_16,standard,200_2.2,1.0,no,1541.0,7.0,False,511517.0,12.0,97.0,ball,85.0,False,3
6.0,background,4.0,True,False,True,False,True,hard_4,hard,100_3.2,2.0,no,980.0,8.0,False,514437.0,13.0,98.0,ball,86.0,False,3
7.0,background,4.0,True,True,True,False,True,control_7,control,control,0.0,no,1246.0,1.0,False,520061.0,1.0,100.0,ball,87.0,False,3
7.0,background,4.0,False,True,True,True,True,hard_14,hard,0_3.2,2.0,no,1268.0,1.0,False,523077.0,2.0,101.0,ball,88.0,False,3
7.0,background,4.0,False,False,True,True,True,hard_6,hard,0_3.2,2.0,no,957.0,1.0,False,525892.0,3.0,102.0,ball,89.0,False,3
7.0,background,4.0,False,False,True,True,True,standard_3,standard,0_2.2,2.0,no,1781.0,1.0,False,529461.0,4.0,103.0,ball,90.0,False,3
7.0,background,4.0,True,False,True,False,True,hard_9,hard,100_3.2,2.0,no,1142.0,2.0,False,532349.0,5.0,104.0,ball,91.0,False,3
7.0,background,4.0,True,True,True,True,True,standard_15,standard,0_2.2,2.0,yes,1374.0,3.0,False,535517.0,6.0,105.0,ball,92.0,False,3
7.0,background,4.0,True,True,True,False,True,standard_1,standard,200_2.2,2.0,no,741.0,4.0,False,538005.0,7.0,106.0,ball,93.0,False,3
7.0,background,4.0,True,False,True,False,True,standard_5,standard,200_2.2,2.0,no,878.0,5.0,False,540709.0,8.0,107.0,ball,94.0,False,3
7.0,background,4.0,False,True,True,True,True,hard_3,hard,0_3.2,2.0,no,4797.0,5.0,False,547748.0,9.0,108.0,ball,95.0,False,3
7.0,background,4.0,True,False,True,False,True,standard_8,standard,200_2.2,1.0,no,2054.0,6.0,False,551469.0,10.0,109.0,ball,96.0,False,3
7.0,background,4.0,False,True,True,True,True,standard_11,standard,0_2.2,2.0,no,1878.0,6.0,False,555197.0,11.0,110.0,ball,97.0,False,3
7.0,background,4.0,False,True,True,True,True,hard_10,hard,0_3.2,2.0,no,1924.0,6.0,False,558972.0,12.0,111.0,ball,98.0,False,3
7.0,background,4.0,True,False,True,False,True,hard_5,hard,100_3.2,2.0,no,957.0,7.0,False,561685.0,13.0,112.0,ball,99.0,False,3
8.0,background,4.0,True,True,True,False,True,hard_4,hard,100_3.2,2.0,no,1316.0,1.0,False,568453.0,1.0,114.0,ball,100.0,False,3
8.0,background,4.0,True,False,True,True,True,standard_10,standard,0_2.2,1.0,yes,741.0,2.0,False,571101.0,2.0,115.0,ball,101.0,False,3
8.0,background,4.0,True,False,True,False,True,hard_13,hard,100_3.2,2.0,no,2132.0,3.0,False,575348.0,3.0,116.0,ball,102.0,False,3
8.0,background,4.0,True,False,True,False,True,hard_0,hard,100_3.2,2.0,no,2286.0,4.0,False,579564.0,4.0,117.0,ball,103.0,False,3
8.0,background,4.0,True,True,True,False,True,standard_13,standard,200_2.2,2.0,no,1238.0,5.0,False,582508.0,5.0,118.0,ball,104.0,False,3
8.0,background,4.0,True,False,True,False,True,hard_12,hard,100_3.2,2.0,no,916.0,6.0,False,585340.0,6.0,119.0,ball,105.0,False,3
8.0,background,4.0,True,False,True,True,True,standard_22,standard,0_2.2,1.0,yes,806.0,7.0,False,587812.0,7.0,120.0,ball,106.0,False,3
8.0,background,4.0,True,True,True,False,True,hard_1,hard,100_3.2,2.0,no,965.0,8.0,False,590676.0,8.0,121.0,ball,107.0,False,3
8.0,background,4.0,False,False,True,True,True,hard_2,hard,0_3.2,2.0,no,1845.0,8.0,False,594468.0,9.0,122.0,ball,108.0,False,3
8.0,background,4.0,True,True,True,False,True,hard_8,hard,100_3.2,2.0,no,1388.0,9.0,False,597684.0,10.0,123.0,ball,109.0,False,3
8.0,background,4.0,False,False,True,True,True,hard_11,hard,0_3.2,2.0,no,1181.0,9.0,False,600604.0,11.0,124.0,ball,110.0,False,3
8.0,background,4.0,True,True,True,False,True,control_5,control,control,0.0,no,2085.0,10.0,False,604517.0,12.0,125.0,ball,111.0,False,3
8.0,background,4.0,False,True,True,True,True,hard_7,hard,0_3.2,2.0,no,1141.0,10.0,False,607420.0,13.0,126.0,ball,112.0,False,3
9.0,background,4.0,False,False,True,True,True,hard_3,hard,0_3.2,2.0,no,1997.0,0.0,False,613028.0,1.0,128.0,ball,113.0,False,3
9.0,background,4.0,False,True,True,True,True,hard_6,hard,0_3.2,2.0,no,1397.0,0.0,False,616172.0,2.0,129.0,ball,114.0,False,3
9.0,background,4.0,False,True,True,True,True,hard_11,hard,0_3.2,2.0,no,1029.0,0.0,False,618924.0,3.0,130.0,ball,115.0,False,3
9.0,background,4.0,True,True,True,False,True,hard_12,hard,100_3.2,2.0,no,685.0,1.0,False,621532.0,4.0,131.0,ball,116.0,False,3
9.0,background,4.0,False,True,True,False,True,hard_13,hard,100_3.2,2.0,yes,2485.0,1.0,False,625733.0,5.0,132.0,ball,117.0,False,3
9.0,background,4.0,True,False,True,False,True,hard_8,hard,100_3.2,2.0,no,2190.0,2.0,False,630972.0,6.0,133.0,ball,118.0,False,3
9.0,background,4.0,True,True,True,False,True,hard_5,hard,100_3.2,2.0,no,933.0,3.0,False,635084.0,7.0,134.0,ball,119.0,False,3
9.0,background,4.0,True,True,True,False,True,hard_9,hard,100_3.2,2.0,no,1052.0,4.0,False,637908.0,8.0,135.0,ball,120.0,False,3
9.0,background,4.0,True,False,True,False,True,hard_1,hard,100_3.2,2.0,no,1197.0,5.0,False,640852.0,9.0,136.0,ball,121.0,False,3
9.0,background,4.0,False,False,True,True,True,hard_7,hard,0_3.2,2.0,no,989.0,5.0,False,643556.0,10.0,137.0,ball,122.0,False,3
9.0,background,4.0,False,False,True,True,True,hard_14,hard,0_3.2,2.0,no,853.0,5.0,False,646172.0,11.0,138.0,ball,123.0,False,3
9.0,background,4.0,False,False,True,True,True,hard_10,hard,0_3.2,2.0,no,773.0,5.0,False,648652.0,12.0,139.0,ball,124.0,False,3
10.0,background,4.0,True,True,True,True,True,critical_0,critical,0_3.2,2.0,yes,5293.0,1.0,False,660213.0,1.0,141.0,ball,125.0,False,3
10.0,background,4.0,True,True,True,False,True,critical_1,critical,100_3.2,2.0,no,1549.0,2.0,False,664332.0,2.0,142.0,ball,126.0,False,3
10.0,background,4.0,True,True,True,True,True,critical_2,critical,0_3.2,2.0,yes,1620.0,3.0,False,667708.0,3.0,143.0,ball,127.0,False,3
10.0,background,4.0,True,True,True,False,True,critical_3,critical,100_3.2,2.0,no,1397.0,4.0,False,670828.0,4.0,144.0,ball,128.0,False,3
10.0,background,4.0,False,True,True,True,False,critical_4,critical,0_3.2,2.0,no,1214.0,4.0,False,673788.0,5.0,145.0,ball,129.0,False,3
10.0,background,4.0,True,True,True,False,True,filler_5,filler,200_2.2,2.0,no,1524.0,5.0,False,677372.0,6.0,146.0,ball,130.0,False,3
10.0,background,4.0,True,True,True,False,True,filler_4,filler,200_2.2,1.0,no,2630.0,6.0,False,681900.0,7.0,147.0,ball,131.0,False,3
10.0,background,4.0,True,True,True,False,False,critical_5,critical,100_3.2,2.0,no,1613.0,7.0,False,685308.0,8.0,148.0,ball,132.0,False,3
10.0,background,4.0,False,True,True,True,True,filler_3,filler,0_2.2,2.0,no,1748.0,7.0,False,688812.0,9.0,149.0,ball,133.0,False,3
10.0,background,4.0,True,True,True,True,True,filler_2,filler,0_2.2,1.0,yes,862.0,8.0,False,691476.0,10.0,150.0,ball,134.0,False,3
10.0,background,4.0,False,True,True,True,False,critical_6,critical,0_3.2,2.0,no,1205.0,8.0,False,694508.0,11.0,151.0,ball,135.0,False,3
10.0,background,4.0,True,True,True,False,True,filler_0,filler,200_2.2,1.0,no,1093.0,9.0,False,697364.0,12.0,152.0,ball,136.0,False,3
10.0,background,4.0,True,True,True,False,True,filler_1,filler,200_2.2,2.0,no,782.0,10.0,False,700044.0,13.0,153.0,ball,137.0,False,3
10.0,background,4.0,True,True,True,False,False,critical_7,critical,100_3.2,2.0,no,838.0,11.0,False,702796.0,14.0,154.0,ball,138.0,False,3
0.0,False,22.0,True,True,True,True,True,instruct_2,instruct,0_1.6,1.0,yes,3059.0,1.0,True,90306.0,1.0,5.0,ball,1.0,False,4
0.0,False,22.0,False,True,True,True,True,instruct_3,instruct,0_1.6,2.0,no,7660.0,1.0,True,103473.0,2.0,6.0,ball,2.0,False,4
0.0,False,22.0,True,True,True,False,True,instruct_4,instruct,300_1.6,1.0,no,2730.0,2.0,True,111505.0,3.0,7.0,ball,3.0,False,4
0.0,False,22.0,True,True,True,False,True,instruct_1,instruct,300_1.6,2.0,no,1985.0,3.0,True,118943.0,4.0,8.0,ball,4.0,False,4
0.0,False,22.0,True,True,True,True,True,instruct_7,instruct,0_1.6,2.0,yes,1156.0,4.0,True,125422.0,5.0,9.0,ball,5.0,False,4
0.0,False,22.0,True,True,True,True,True,instruct_6,instruct,0_1.6,1.0,yes,1760.0,5.0,True,132704.0,6.0,10.0,ball,6.0,False,4
0.0,False,22.0,True,True,True,False,True,instruct_5,instruct,300_1.6,2.0,no,3141.0,6.0,True,140575.0,7.0,11.0,ball,7.0,False,4
0.0,False,22.0,True,True,True,False,True,instruct_0,instruct,300_1.6,1.0,no,2115.0,7.0,True,147378.0,8.0,12.0,ball,8.0,False,4
1.0,background,22.0,True,False,True,True,True,easy_2,easy,0_1.4,1.0,yes,1042.0,1.0,False,163717.0,1.0,16.0,ball,9.0,False,4
1.0,background,22.0,True,False,True,False,True,easy_12,easy,300_1.4,1.0,no,1179.0,2.0,False,167157.0,2.0,17.0,ball,10.0,False,4
1.0,background,22.0,True,True,True,False,True,easy_4,easy,300_1.4,1.0,no,950.0,3.0,False,170213.0,3.0,18.0,ball,11.0,False,4
1.0,background,22.0,True,True,True,True,True,easy_6,easy,0_1.4,1.0,yes,1949.0,4.0,False,175229.0,4.0,19.0,ball,12.0,False,4
1.0,background,22.0,True,True,True,True,True,control_0,control,control,0.0,yes,851.0,5.0,False,178540.0,5.0,20.0,ball,13.0,False,4
1.0,background,22.0,True,False,True,False,True,easy_8,easy,300_1.4,1.0,no,2683.0,6.0,False,183741.0,6.0,21.0,ball,14.0,False,4
1.0,background,22.0,True,False,True,False,True,easy_13,easy,300_1.4,1.0,no,731.0,7.0,False,186613.0,7.0,22.0,ball,15.0,False,4
1.0,background,22.0,True,True,True,True,True,easy_3,easy,0_1.4,1.0,yes,1040.0,8.0,False,189771.0,8.0,23.0,ball,16.0,False,4
1.0,background,22.0,True,False,True,False,True,easy_1,easy,300_1.4,1.0,no,666.0,9.0,False,192580.0,9.0,24.0,ball,17.0,False,4
1.0,background,22.0,True,True,True,True,True,easy_10,easy,0_1.4,1.0,yes,1752.0,10.0,False,197036.0,10.0,25.0,ball,18.0,False,4
1.0,background,22.0,True,False,True,False,True,easy_5,easy,300_1.4,1.0,no,1866.0,11.0,False,201604.0,11.0,26.0,ball,19.0,False,4
1.0,background,22.0,True,True,True,False,True,easy_0,easy,300_1.4,1.0,no,1820.0,12.0,False,206132.0,12.0,27.0,ball,20.0,False,4
1.0,background,22.0,True,True,True,True,True,easy_7,easy,0_1.4,1.0,yes,6909.0,13.0,False,216108.0,13.0,28.0,ball,21.0,False,4
2.0,background,22.0,True,True,True,True,True,easy_14,easy,0_1.4,1.0,yes,1341.0,1.0,False,224955.0,1.0,30.0,ball,22.0,False,4
2.0,background,22.0,True,True,True,False,True,easy_12,easy,300_1.4,1.0,no,651.0,2.0,False,228291.0,2.0,31.0,ball,23.0,False,4
2.0,background,22.0,True,True,True,False,True,easy_13,easy,300_1.4,1.0,no,625.0,3.0,False,231443.0,3.0,32.0,ball,24.0,False,4
2.0,background,22.0,True,False,True,False,True,easy_0,easy,300_1.4,1.0,no,919.0,4.0,False,234907.0,4.0,33.0,ball,25.0,False,4
2.0,background,22.0,True,False,True,False,True,easy_4,easy,300_1.4,1.0,no,571.0,5.0,False,237459.0,5.0,34.0,ball,26.0,False,4
2.0,background,22.0,True,False,True,True,True,easy_10,easy,0_1.4,1.0,yes,553.0,6.0,False,241250.0,6.0,35.0,ball,27.0,False,4
2.0,background,22.0,True,False,True,True,True,standard_22,standard,0_2.2,1.0,yes,4693.0,7.0,False,248084.0,7.0,36.0,ball,28.0,False,4
2.0,background,22.0,True,True,True,True,True,easy_11,easy,0_1.4,1.0,yes,723.0,8.0,False,251506.0,8.0,37.0,ball,29.0,False,4
2.0,background,22.0,True,False,True,False,True,easy_9,easy,300_1.4,1.0,no,437.0,9.0,False,255059.0,9.0,38.0,ball,30.0,False,4
2.0,background,22.0,False,True,True,True,True,standard_7,standard,0_2.2,2.0,no,629.0,9.0,False,258435.0,10.0,39.0,ball,31.0,False,4
2.0,background,22.0,True,True,True,False,True,standard_1,standard,200_2.2,2.0,no,369.0,10.0,False,260970.0,11.0,40.0,ball,32.0,False,4
2.0,background,22.0,True,True,True,False,True,control_3,control,control,0.0,no,553.0,11.0,False,264162.0,12.0,41.0,ball,33.0,False,4
2.0,background,22.0,True,True,True,False,True,easy_5,easy,300_1.4,1.0,no,393.0,12.0,False,266937.0,13.0,42.0,ball,34.0,False,4
3.0,background,22.0,True,False,True,True,True,easy_7,easy,0_1.4,1.0,yes,955.0,1.0,False,273410.0,1.0,44.0,ball,35.0,False,4
3.0,background,22.0,False,False,True,True,True,easy_6,easy,0_1.4,1.0,no,374.0,1.0,False,275945.0,2.0,45.0,ball,36.0,False,4
3.0,background,22.0,True,False,True,True,True,standard_18,standard,0_2.2,1.0,yes,1818.0,2.0,False,279578.0,3.0,46.0,ball,37.0,False,4
3.0,background,22.0,True,True,True,False,True,control_5,control,control,0.0,no,364.0,3.0,False,282289.0,4.0,47.0,ball,38.0,False,4
3.0,background,22.0,True,True,True,False,True,standard_4,standard,200_2.2,1.0,no,578.0,4.0,False,288512.0,5.0,48.0,ball,39.0,False,4
3.0,background,22.0,True,False,True,True,True,easy_3,easy,0_1.4,1.0,yes,999.0,5.0,False,292089.0,6.0,49.0,ball,40.0,False,4
3.0,background,22.0,True,True,True,False,True,easy_1,easy,300_1.4,1.0,no,628.0,6.0,False,295649.0,7.0,50.0,ball,41.0,False,4
3.0,background,22.0,False,False,True,True,True,standard_11,standard,0_2.2,2.0,no,1244.0,6.0,False,299665.0,8.0,51.0,ball,42.0,False,4
3.0,background,22.0,True,True,True,False,True,standard_12,standard,200_2.2,1.0,no,2724.0,7.0,False,305081.0,9.0,52.0,ball,43.0,False,4
3.0,background,22.0,True,False,True,False,True,standard_0,standard,200_2.2,1.0,no,1155.0,8.0,False,309809.0,10.0,53.0,ball,44.0,False,4
3.0,background,22.0,True,True,True,False,True,standard_9,standard,200_2.2,2.0,no,322.0,9.0,False,312464.0,11.0,54.0,ball,45.0,False,4
3.0,background,22.0,True,True,True,True,True,easy_2,easy,0_1.4,1.0,yes,500.0,10.0,False,319649.0,12.0,55.0,ball,46.0,False,4
3.0,background,22.0,True,True,True,False,True,easy_8,easy,300_1.4,1.0,no,445.0,11.0,False,322984.0,13.0,56.0,ball,47.0,False,4
4.0,background,22.0,True,True,True,True,True,standard_3,standard,0_2.2,2.0,yes,1223.0,1.0,False,329400.0,1.0,58.0,ball,48.0,False,4
4.0,background,22.0,True,False,True,True,True,standard_23,standard,0_2.2,2.0,yes,7145.0,2.0,False,339785.0,2.0,59.0,ball,49.0,False,4
4.0,background,22.0,True,False,True,False,True,standard_20,standard,200_2.2,1.0,no,1754.0,3.0,False,344319.0,3.0,60.0,ball,50.0,False,4
4.0,background,22.0,True,True,True,False,True,standard_17,standard,200_2.2,2.0,no,480.0,4.0,False,348374.0,4.0,61.0,ball,51.0,False,4
4.0,background,22.0,False,False,True,True,True,easy_11,easy,0_1.4,1.0,no,290.0,4.0,False,351982.0,5.0,62.0,ball,52.0,False,4
4.0,background,22.0,True,False,True,False,True,standard_8,standard,200_2.2,1.0,no,1867.0,5.0,False,355823.0,6.0,63.0,ball,53.0,False,4
4.0,background,22.0,True,True,True,False,True,easy_9,easy,300_1.4,1.0,no,538.0,6.0,False,359943.0,7.0,64.0,ball,54.0,False,4
4.0,background,22.0,True,True,True,True,True,control_4,control,control,0.0,yes,433.0,7.0,False,362487.0,8.0,65.0,ball,55.0,False,4
4.0,background,22.0,True,False,True,True,True,easy_14,easy,0_1.4,1.0,yes,818.0,8.0,False,366951.0,9.0,66.0,ball,56.0,False,4
4.0,background,22.0,True,False,True,True,True,standard_2,standard,0_2.2,1.0,yes,956.0,9.0,False,370079.0,10.0,67.0,ball,57.0,False,4
4.0,background,22.0,True,True,True,True,True,standard_10,standard,0_2.2,1.0,yes,572.0,10.0,False,373903.0,11.0,68.0,ball,58.0,False,4
4.0,background,22.0,True,False,True,True,True,standard_14,standard,0_2.2,1.0,yes,821.0,11.0,False,377247.0,12.0,69.0,ball,59.0,False,4
4.0,background,22.0,False,True,True,False,True,standard_13,standard,200_2.2,2.0,yes,436.0,11.0,False,380430.0,13.0,70.0,ball,60.0,False,4
5.0,background,22.0,True,False,True,True,True,standard_7,standard,0_2.2,2.0,yes,5634.0,1.0,False,390766.0,1.0,72.0,ball,61.0,False,4
5.0,background,22.0,True,True,True,True,True,standard_6,standard,0_2.2,1.0,yes,903.0,2.0,False,394326.0,2.0,73.0,ball,62.0,False,4
5.0,background,22.0,True,True,True,True,True,standard_19,standard,0_2.2,2.0,yes,4807.0,3.0,False,401590.0,3.0,74.0,ball,63.0,False,4
5.0,background,22.0,True,False,True,False,True,standard_16,standard,200_2.2,1.0,no,626.0,4.0,False,404654.0,4.0,75.0,ball,64.0,False,4
5.0,background,22.0,True,True,True,False,True,standard_5,standard,200_2.2,2.0,no,473.0,5.0,False,407894.0,5.0,76.0,ball,65.0,False,4
5.0,background,22.0,True,False,True,False,True,standard_1,standard,200_2.2,2.0,no,377.0,6.0,False,411022.0,6.0,77.0,ball,66.0,False,4
5.0,background,22.0,True,True,True,True,True,standard_18,standard,0_2.2,1.0,yes,1217.0,7.0,False,413861.0,7.0,78.0,ball,67.0,False,4
5.0,background,22.0,True,False,True,False,True,standard_4,standard,200_2.2,1.0,no,594.0,8.0,False,416557.0,8.0,79.0,ball,68.0,False,4
5.0,background,22.0,True,True,True,False,True,standard_0,standard,200_2.2,1.0,no,3394.0,9.0,False,422421.0,9.0,80.0,ball,69.0,False,4
5.0,background,22.0,True,True,True,False,True,control_1,control,control,0.0,no,755.0,10.0,False,426533.0,10.0,81.0,ball,70.0,False,4
5.0,background,22.0,True,False,True,True,True,standard_15,standard,0_2.2,2.0,yes,2578.0,11.0,False,432477.0,11.0,82.0,ball,71.0,False,4
5.0,background,22.0,True,False,True,False,True,standard_21,standard,200_2.2,2.0,no,2931.0,12.0,False,438853.0,12.0,83.0,ball,72.0,False,4
5.0,background,22.0,True,True,True,True,True,standard_22,standard,0_2.2,1.0,yes,948.0,13.0,False,444740.0,13.0,84.0,ball,73.0,False,4
6.0,background,22.0,True,False,True,False,True,standard_17,standard,200_2.2,2.0,no,2554.0,1.0,False,460932.0,1.0,86.0,ball,74.0,False,4
6.0,background,22.0,True,True,True,True,True,standard_2,standard,0_2.2,1.0,yes,468.0,2.0,False,464563.0,2.0,87.0,ball,75.0,False,4
6.0,background,22.0,True,False,True,False,True,standard_13,standard,200_2.2,2.0,no,498.0,3.0,False,466876.0,3.0,88.0,ball,76.0,False,4
6.0,background,22.0,True,True,True,False,True,control_7,control,control,0.0,no,484.0,4.0,False,470259.0,4.0,89.0,ball,77.0,False,4
6.0,background,22.0,True,True,True,True,True,standard_14,standard,0_2.2,1.0,yes,765.0,5.0,False,473227.0,5.0,90.0,ball,78.0,False,4
6.0,background,22.0,False,False,True,False,True,standard_12,standard,200_2.2,1.0,yes,1006.0,5.0,False,476475.0,6.0,91.0,ball,79.0,False,4
6.0,background,22.0,False,True,True,True,True,standard_23,standard,0_2.2,2.0,no,528.0,5.0,False,479676.0,7.0,92.0,ball,80.0,False,4
6.0,background,22.0,True,False,True,False,True,standard_9,standard,200_2.2,2.0,no,384.0,6.0,False,481836.0,8.0,93.0,ball,81.0,False,4
6.0,background,22.0,True,True,True,True,True,standard_11,standard,0_2.2,2.0,yes,3142.0,7.0,False,490619.0,9.0,94.0,ball,82.0,False,4
6.0,background,22.0,True,False,True,True,True,hard_10,hard,0_3.2,2.0,yes,2154.0,8.0,False,495659.0,10.0,95.0,ball,83.0,False,4
6.0,background,22.0,False,True,True,False,True,standard_8,standard,200_2.2,1.0,yes,1140.0,8.0,False,499730.0,11.0,96.0,ball,84.0,False,4
6.0,background,22.0,True,True,True,False,True,hard_8,hard,100_3.2,2.0,no,692.0,9.0,False,503194.0,12.0,97.0,ball,85.0,False,4
6.0,background,22.0,False,True,True,True,True,hard_6,hard,0_3.2,2.0,no,1498.0,9.0,False,508354.0,13.0,98.0,ball,86.0,False,4
7.0,background,22.0,True,False,True,True,True,hard_3,hard,0_3.2,2.0,yes,10380.0,1.0,False,524378.0,1.0,100.0,ball,87.0,False,4
7.0,background,22.0,True,True,True,True,True,standard_15,standard,0_2.2,2.0,yes,848.0,2.0,False,527537.0,2.0,101.0,ball,88.0,False,4
7.0,background,22.0,True,False,True,True,True,standard_10,standard,0_2.2,1.0,yes,628.0,3.0,False,530938.0,3.0,102.0,ball,89.0,False,4
7.0,background,22.0,True,False,True,True,True,standard_6,standard,0_2.2,1.0,yes,1082.0,4.0,False,537593.0,4.0,103.0,ball,90.0,False,4
7.0,background,22.0,True,True,True,False,True,hard_9,hard,100_3.2,2.0,no,3795.0,5.0,False,544330.0,5.0,104.0,ball,91.0,False,4
7.0,background,22.0,False,False,True,True,True,standard_3,standard,0_2.2,2.0,no,706.0,5.0,False,548545.0,6.0,105.0,ball,92.0,False,4
7.0,background,22.0,True,True,True,False,True,standard_21,standard,200_2.2,2.0,no,3109.0,6.0,False,554521.0,7.0,106.0,ball,93.0,False,4
7.0,background,22.0,True,True,True,True,True,control_6,control,control,0.0,yes,363.0,7.0,False,557201.0,8.0,107.0,ball,94.0,False,4
7.0,background,22.0,True,False,True,False,True,hard_12,hard,100_3.2,2.0,no,27674.0,8.0,False,591209.0,9.0,108.0,ball,95.0,False,4
7.0,background,22.0,True,True,True,False,True,hard_5,hard,100_3.2,2.0,no,500.0,9.0,False,594152.0,10.0,109.0,ball,96.0,False,4
7.0,background,22.0,False,True,True,False,True,standard_20,standard,200_2.2,1.0,yes,632.0,9.0,False,597239.0,11.0,110.0,ball,97.0,False,4
7.0,background,22.0,True,False,True,True,True,hard_14,hard,0_3.2,2.0,yes,615.0,10.0,False,603064.0,12.0,111.0,ball,98.0,False,4
7.0,background,22.0,True,True,True,False,True,hard_13,hard,100_3.2,2.0,no,2740.0,11.0,False,608895.0,13.0,112.0,ball,99.0,False,4
8.0,background,22.0,True,False,True,False,True,hard_8,hard,100_3.2,2.0,no,1720.0,1.0,False,616055.0,1.0,114.0,ball,100.0,False,4
8.0,background,22.0,True,False,True,False,True,standard_5,standard,200_2.2,2.0,no,1355.0,2.0,False,632646.0,2.0,115.0,ball,101.0,False,4
8.0,background,22.0,True,False,True,True,True,hard_11,hard,0_3.2,2.0,yes,975.0,3.0,False,636974.0,3.0,116.0,ball,102.0,False,4
8.0,background,22.0,True,True,True,True,True,hard_10,hard,0_3.2,2.0,yes,609.0,4.0,False,640062.0,4.0,117.0,ball,103.0,False,4
8.0,background,22.0,True,True,True,True,True,control_2,control,control,0.0,yes,815.0,5.0,False,643246.0,5.0,118.0,ball,104.0,False,4
8.0,background,22.0,False,True,True,True,True,hard_7,hard,0_3.2,2.0,no,1513.0,5.0,False,647438.0,6.0,119.0,ball,105.0,False,4
8.0,background,22.0,True,False,True,False,True,hard_1,hard,100_3.2,2.0,no,2005.0,6.0,False,652021.0,7.0,120.0,ball,106.0,False,4
8.0,background,22.0,False,False,True,True,True,hard_6,hard,0_3.2,2.0,no,801.0,6.0,False,654654.0,8.0,121.0,ball,107.0,False,4
8.0,background,22.0,True,True,True,False,True,hard_4,hard,100_3.2,2.0,no,323.0,7.0,False,657182.0,9.0,122.0,ball,108.0,False,4
8.0,background,22.0,True,False,True,False,True,hard_0,hard,100_3.2,2.0,no,429.0,8.0,False,659206.0,10.0,123.0,ball,109.0,False,4
8.0,background,22.0,True,True,True,False,True,standard_16,standard,200_2.2,1.0,no,749.0,9.0,False,661342.0,11.0,124.0,ball,110.0,False,4
8.0,background,22.0,True,False,True,True,True,standard_19,standard,0_2.2,2.0,yes,468.0,10.0,False,665262.0,12.0,125.0,ball,111.0,False,4
8.0,background,22.0,False,True,True,True,True,hard_2,hard,0_3.2,2.0,no,555.0,10.0,False,667885.0,13.0,126.0,ball,112.0,False,4
9.0,background,22.0,False,True,True,False,True,hard_0,hard,100_3.2,2.0,yes,1745.0,0.0,False,683941.0,1.0,128.0,ball,113.0,False,4
9.0,background,22.0,True,False,True,False,True,hard_13,hard,100_3.2,2.0,no,2901.0,1.0,False,693581.0,2.0,129.0,ball,114.0,False,4
9.0,background,22.0,False,False,True,True,True,hard_2,hard,0_3.2,2.0,no,1180.0,1.0,False,698780.0,3.0,130.0,ball,115.0,False,4
9.0,background,22.0,True,False,True,False,True,hard_4,hard,100_3.2,2.0,no,1324.0,2.0,False,704165.0,4.0,131.0,ball,116.0,False,4
9.0,background,22.0,True,True,True,True,True,hard_3,hard,0_3.2,2.0,yes,1246.0,3.0,False,707876.0,5.0,132.0,ball,117.0,False,4
9.0,background,22.0,True,True,True,True,True,hard_11,hard,0_3.2,2.0,yes,7697.0,4.0,False,718636.0,6.0,133.0,ball,118.0,False,4
9.0,background,22.0,True,True,True,False,True,hard_12,hard,100_3.2,2.0,no,2727.0,5.0,False,723587.0,7.0,134.0,ball,119.0,False,4
9.0,background,22.0,True,True,True,True,True,hard_14,hard,0_3.2,2.0,yes,481.0,6.0,False,727756.0,8.0,135.0,ball,120.0,False,4
9.0,background,22.0,True,False,True,False,True,hard_9,hard,100_3.2,2.0,no,1196.0,7.0,False,731875.0,9.0,136.0,ball,121.0,False,4
9.0,background,22.0,False,False,True,True,True,hard_7,hard,0_3.2,2.0,no,657.0,7.0,False,736107.0,10.0,137.0,ball,122.0,False,4
9.0,background,22.0,True,False,True,False,True,hard_5,hard,100_3.2,2.0,no,707.0,8.0,False,745379.0,11.0,138.0,ball,123.0,False,4
9.0,background,22.0,True,True,True,False,True,hard_1,hard,100_3.2,2.0,no,3218.0,9.0,False,753003.0,12.0,139.0,ball,124.0,False,4
10.0,background,22.0,True,True,True,False,True,critical_6,critical,100_3.2,2.0,no,1715.0,1.0,False,763498.0,1.0,141.0,ball,125.0,False,4
10.0,background,22.0,True,True,True,True,True,critical_7,critical,0_3.2,2.0,yes,1514.0,2.0,False,767146.0,2.0,142.0,ball,126.0,False,4
10.0,background,22.0,True,True,True,False,True,critical_0,critical,100_3.2,2.0,no,385.0,3.0,False,770354.0,3.0,143.0,ball,127.0,False,4
10.0,background,22.0,False,True,True,True,True,critical_1,critical,0_3.2,2.0,no,754.0,3.0,False,774026.0,4.0,144.0,ball,128.0,False,4
10.0,background,22.0,True,True,True,False,False,critical_2,critical,100_3.2,2.0,no,3418.0,4.0,False,780186.0,5.0,145.0,ball,129.0,False,4
10.0,background,22.0,True,True,True,False,True,filler_5,filler,200_2.2,2.0,no,676.0,5.0,False,783898.0,6.0,146.0,ball,130.0,False,4
10.0,background,22.0,False,True,True,False,True,filler_0,filler,200_2.2,1.0,yes,577.0,5.0,False,787713.0,7.0,147.0,ball,131.0,False,4
10.0,background,22.0,False,True,True,True,False,critical_3,critical,0_3.2,2.0,no,755.0,5.0,False,791452.0,8.0,148.0,ball,132.0,False,4
10.0,background,22.0,True,True,True,True,True,filler_2,filler,0_2.2,1.0,yes,441.0,6.0,False,794650.0,9.0,149.0,ball,133.0,False,4
10.0,background,22.0,True,True,True,True,True,filler_3,filler,0_2.2,2.0,yes,2649.0,7.0,False,799929.0,10.0,150.0,ball,134.0,False,4
10.0,background,22.0,False,True,True,False,False,critical_4,critical,100_3.2,2.0,yes,9609.0,7.0,False,811987.0,11.0,151.0,ball,135.0,False,4
10.0,background,22.0,True,True,True,False,True,filler_4,filler,200_2.2,1.0,no,635.0,8.0,False,814441.0,12.0,152.0,ball,136.0,False,4
10.0,background,22.0,True,True,True,False,True,filler_1,filler,200_2.2,2.0,no,421.0,9.0,False,817344.0,13.0,153.0,ball,137.0,False,4
10.0,background,22.0,True,True,True,True,False,critical_5,critical,0_3.2,2.0,yes,915.0,10.0,False,820313.0,14.0,154.0,ball,138.0,False,4
0.0,False,14.0,True,True,True,True,True,instruct_2,instruct,0_1.6,1.0,yes,4433.0,1.0,True,122001.0,1.0,5.0,ball,1.0,False,5
0.0,False,14.0,True,True,True,True,True,instruct_6,instruct,0_1.6,1.0,yes,1663.0,2.0,True,129124.0,2.0,6.0,ball,2.0,False,5
0.0,False,14.0,True,True,True,True,True,instruct_3,instruct,0_1.6,2.0,yes,2606.0,3.0,True,138095.0,3.0,7.0,ball,3.0,False,5
0.0,False,14.0,True,True,True,True,True,instruct_7,instruct,0_1.6,2.0,yes,2790.0,4.0,True,145810.0,4.0,8.0,ball,4.0,False,5
0.0,False,14.0,True,True,True,False,True,instruct_4,instruct,300_1.6,1.0,no,2637.0,5.0,True,153546.0,5.0,9.0,ball,5.0,False,5
0.0,False,14.0,True,True,True,False,True,instruct_5,instruct,300_1.6,2.0,no,2797.0,6.0,True,161247.0,6.0,10.0,ball,6.0,False,5
0.0,False,14.0,False,True,True,False,True,instruct_0,instruct,300_1.6,1.0,yes,1733.0,6.0,True,167439.0,7.0,11.0,ball,7.0,False,5
0.0,False,14.0,True,True,True,False,True,instruct_1,instruct,300_1.6,2.0,no,1851.0,7.0,True,174550.0,8.0,12.0,ball,8.0,False,5
1.0,background,14.0,True,False,True,False,True,easy_0,easy,300_1.4,1.0,no,1780.0,1.0,False,195745.0,1.0,16.0,ball,9.0,False,5
1.0,background,14.0,True,False,True,True,True,easy_11,easy,0_1.4,1.0,yes,1028.0,2.0,False,199041.0,2.0,17.0,ball,10.0,False,5
1.0,background,14.0,False,True,True,False,True,easy_13,easy,300_1.4,1.0,yes,1037.0,2.0,False,202169.0,3.0,18.0,ball,11.0,False,5
1.0,background,14.0,True,True,True,False,True,easy_9,easy,300_1.4,1.0,no,929.0,3.0,False,205329.0,4.0,19.0,ball,12.0,False,5
1.0,background,14.0,True,True,True,True,True,easy_10,easy,0_1.4,1.0,yes,3853.0,4.0,False,211292.0,5.0,20.0,ball,13.0,False,5
1.0,background,14.0,True,True,True,True,True,easy_2,easy,0_1.4,1.0,yes,748.0,5.0,False,214466.0,6.0,21.0,ball,14.0,False,5
1.0,background,14.0,True,False,True,False,True,easy_5,easy,300_1.4,1.0,no,1149.0,6.0,False,217673.0,7.0,22.0,ball,15.0,False,5
1.0,background,14.0,True,False,True,False,True,easy_4,easy,300_1.4,1.0,no,1342.0,7.0,False,221265.0,8.0,23.0,ball,16.0,False,5
1.0,background,14.0,False,False,True,True,True,easy_6,easy,0_1.4,1.0,no,1822.0,7.0,False,225317.0,9.0,24.0,ball,17.0,False,5
1.0,background,14.0,False,True,True,False,True,easy_1,easy,300_1.4,1.0,yes,1477.0,7.0,False,228945.0,10.0,25.0,ball,18.0,False,5
1.0,background,14.0,True,False,True,True,True,easy_7,easy,0_1.4,1.0,yes,1016.0,8.0,False,232329.0,11.0,26.0,ball,19.0,False,5
1.0,background,14.0,False,True,True,False,True,easy_12,easy,300_1.4,1.0,yes,3109.0,8.0,False,237464.0,12.0,27.0,ball,20.0,False,5
1.0,background,14.0,True,True,True,False,True,control_1,control,control,0.0,no,1071.0,9.0,False,241541.0,13.0,28.0,ball,21.0,False,5
2.0,background,14.0,True,False,True,True,True,standard_2,standard,0_2.2,1.0,yes,1293.0,1.0,False,252241.0,1.0,30.0,ball,22.0,False,5
2.0,background,14.0,True,True,True,False,True,easy_8,easy,300_1.4,1.0,no,3600.0,2.0,False,257980.0,2.0,31.0,ball,23.0,False,5
2.0,background,14.0,False,False,True,False,True,easy_1,easy,300_1.4,1.0,yes,1348.0,2.0,False,261544.0,3.0,32.0,ball,24.0,False,5
2.0,background,14.0,True,True,True,False,True,standard_16,standard,200_2.2,1.0,no,3293.0,3.0,False,266944.0,4.0,33.0,ball,25.0,False,5
2.0,background,14.0,True,False,True,True,True,easy_3,easy,0_1.4,1.0,yes,3853.0,4.0,False,272842.0,5.0,34.0,ball,26.0,False,5
2.0,background,14.0,False,True,True,True,True,easy_14,easy,0_1.4,1.0,no,1642.0,4.0,False,276594.0,6.0,35.0,ball,27.0,False,5
2.0,background,14.0,True,False,True,False,True,easy_13,easy,300_1.4,1.0,no,2087.0,5.0,False,280557.0,7.0,36.0,ball,28.0,False,5
2.0,background,14.0,True,True,True,True,True,control_2,control,control,0.0,yes,1653.0,6.0,False,284521.0,8.0,37.0,ball,29.0,False,5
2.0,background,14.0,True,True,True,True,True,easy_7,easy,0_1.4,1.0,yes,3909.0,7.0,False,290745.0,9.0,38.0,ball,30.0,False,5
2.0,background,14.0,True,True,True,True,True,standard_11,standard,0_2.2,2.0,yes,2372.0,8.0,False,295424.0,10.0,39.0,ball,31.0,False,5
2.0,background,14.0,True,True,True,True,True,easy_11,easy,0_1.4,1.0,yes,964.0,9.0,False,298832.0,11.0,40.0,ball,32.0,False,5
2.0,background,14.0,False,True,True,False,True,easy_4,easy,300_1.4,1.0,yes,1725.0,9.0,False,303051.0,12.0,41.0,ball,33.0,False,5
2.0,background,14.0,True,False,True,False,True,easy_12,easy,300_1.4,1.0,no,1060.0,10.0,False,306995.0,13.0,42.0,ball,34.0,False,5
3.0,background,14.0,True,True,True,False,True,easy_5,easy,300_1.4,1.0,no,1720.0,1.0,False,316929.0,1.0,44.0,ball,35.0,False,5
3.0,background,14.0,True,False,True,True,True,easy_10,easy,0_1.4,1.0,yes,1397.0,2.0,False,320467.0,2.0,45.0,ball,36.0,False,5
3.0,background,14.0,True,True,True,False,True,standard_21,standard,200_2.2,2.0,no,971.0,3.0,False,323536.0,3.0,46.0,ball,37.0,False,5
3.0,background,14.0,True,False,True,False,True,easy_9,easy,300_1.4,1.0,no,1029.0,4.0,False,326849.0,4.0,47.0,ball,38.0,False,5
3.0,background,14.0,True,False,True,True,True,standard_6,standard,0_2.2,1.0,yes,1310.0,5.0,False,330267.0,5.0,48.0,ball,39.0,False,5
3.0,background,14.0,True,True,True,True,True,standard_15,standard,0_2.2,2.0,yes,801.0,6.0,False,333130.0,6.0,49.0,ball,40.0,False,5
3.0,background,14.0,False,True,True,True,True,easy_6,easy,0_1.4,1.0,no,715.0,6.0,False,336051.0,7.0,50.0,ball,41.0,False,5
3.0,background,14.0,True,False,True,False,True,standard_17,standard,200_2.2,2.0,no,996.0,7.0,False,338921.0,8.0,51.0,ball,42.0,False,5
3.0,background,14.0,False,True,True,True,True,standard_23,standard,0_2.2,2.0,no,1621.0,7.0,False,342833.0,9.0,52.0,ball,43.0,False,5
3.0,background,14.0,True,False,True,False,True,standard_12,standard,200_2.2,1.0,no,974.0,8.0,False,346161.0,10.0,53.0,ball,44.0,False,5
3.0,background,14.0,True,False,True,True,True,easy_2,easy,0_1.4,1.0,yes,742.0,9.0,False,348818.0,11.0,54.0,ball,45.0,False,5
3.0,background,14.0,True,True,True,False,True,easy_0,easy,300_1.4,1.0,no,1077.0,10.0,False,351880.0,12.0,55.0,ball,46.0,False,5
3.0,background,14.0,True,True,True,False,True,control_5,control,control,0.0,no,1029.0,11.0,False,354920.0,13.0,56.0,ball,47.0,False,5
4.0,background,14.0,True,False,True,False,True,standard_13,standard,200_2.2,2.0,no,2125.0,1.0,False,363632.0,1.0,58.0,ball,48.0,False,5
4.0,background,14.0,False,True,True,True,True,standard_7,standard,0_2.2,2.0,no,885.0,1.0,False,366696.0,2.0,59.0,ball,49.0,False,5
4.0,background,14.0,True,True,True,False,True,standard_4,standard,200_2.2,1.0,no,1070.0,2.0,False,370001.0,3.0,60.0,ball,50.0,False,5
4.0,background,14.0,True,False,True,False,True,standard_8,standard,200_2.2,1.0,no,1604.0,3.0,False,373665.0,4.0,61.0,ball,51.0,False,5
4.0,background,14.0,True,True,True,True,True,standard_3,standard,0_2.2,2.0,yes,869.0,4.0,False,376520.0,5.0,62.0,ball,52.0,False,5
4.0,background,14.0,False,False,True,False,True,easy_8,easy,300_1.4,1.0,yes,725.0,4.0,False,379344.0,6.0,63.0,ball,53.0,False,5
4.0,background,14.0,True,True,True,True,True,easy_3,easy,0_1.4,1.0,yes,4357.0,5.0,False,385616.0,7.0,64.0,ball,54.0,False,5
4.0,background,14.0,True,True,True,False,True,control_7,control,control,0.0,no,1245.0,6.0,False,389048.0,8.0,65.0,ball,55.0,False,5
4.0,background,14.0,False,False,True,True,True,standard_19,standard,0_2.2,2.0,no,2301.0,6.0,False,393328.0,9.0,66.0,ball,56.0,False,5
4.0,background,14.0,False,True,True,False,True,standard_0,standard,200_2.2,1.0,yes,826.0,6.0,False,396256.0,10.0,67.0,ball,57.0,False,5
4.0,background,14.0,True,False,True,True,True,standard_10,standard,0_2.2,1.0,yes,1483.0,7.0,False,399799.0,11.0,68.0,ball,58.0,False,5
4.0,background,14.0,False,False,True,True,True,easy_14,easy,0_1.4,1.0,no,3432.0,7.0,False,405331.0,12.0,69.0,ball,59.0,False,5
4.0,background,14.0,True,False,True,False,True,standard_5,standard,200_2.2,2.0,no,1005.0,8.0,False,408265.0,13.0,70.0,ball,60.0,False,5
5.0,background,14.0,True,False,True,True,True,standard_11,standard,0_2.2,2.0,yes,941.0,1.0,False,415280.0,1.0,72.0,ball,61.0,False,5
5.0,background,14.0,True,True,True,True,True,standard_14,standard,0_2.2,1.0,yes,1125.0,2.0,False,418968.0,2.0,73.0,ball,62.0,False,5
5.0,background,14.0,False,True,True,False,True,standard_12,standard,200_2.2,1.0,yes,2565.0,2.0,False,424159.0,3.0,74.0,ball,63.0,False,5
5.0,background,14.0,False,False,True,False,True,standard_20,standard,200_2.2,1.0,yes,1133.0,2.0,False,427456.0,4.0,75.0,ball,64.0,False,5
5.0,background,14.0,True,True,True,True,True,standard_6,standard,0_2.2,1.0,yes,1277.0,3.0,False,430688.0,5.0,76.0,ball,65.0,False,5
5.0,background,14.0,True,True,True,True,True,control_6,control,control,0.0,yes,1429.0,4.0,False,434248.0,6.0,77.0,ball,66.0,False,5
5.0,background,14.0,False,True,True,True,True,standard_18,standard,0_2.2,1.0,no,7116.0,4.0,False,443760.0,7.0,78.0,ball,67.0,False,5
5.0,background,14.0,True,True,True,True,True,standard_2,standard,0_2.2,1.0,yes,909.0,5.0,False,446865.0,8.0,79.0,ball,68.0,False,5
5.0,background,14.0,False,False,True,False,True,standard_16,standard,200_2.2,1.0,yes,829.0,5.0,False,449656.0,9.0,80.0,ball,69.0,False,5
5.0,background,14.0,True,True,True,False,True,standard_9,standard,200_2.2,2.0,no,797.0,6.0,False,452376.0,10.0,81.0,ball,70.0,False,5
5.0,background,14.0,True,False,True,False,True,standard_21,standard,200_2.2,2.0,no,849.0,7.0,False,456168.0,11.0,82.0,ball,71.0,False,5
5.0,background,14.0,True,False,True,True,True,standard_22,standard,0_2.2,1.0,yes,677.0,8.0,False,458904.0,12.0,83.0,ball,72.0,False,5
5.0,background,14.0,True,False,True,False,True,standard_1,standard,200_2.2,2.0,no,829.0,9.0,False,462264.0,13.0,84.0,ball,73.0,False,5
6.0,background,14.0,False,True,True,True,True,hard_7,hard,0_3.2,2.0,no,1179.0,0.0,False,468607.0,1.0,86.0,ball,74.0,False,5
6.0,background,14.0,True,True,True,False,True,standard_8,standard,200_2.2,1.0,no,1901.0,1.0,False,472776.0,2.0,87.0,ball,75.0,False,5
6.0,background,14.0,False,False,True,True,True,standard_23,standard,0_2.2,2.0,no,1655.0,1.0,False,476578.0,3.0,88.0,ball,76.0,False,5
6.0,background,14.0,True,True,True,False,True,standard_5,standard,200_2.2,2.0,no,853.0,2.0,False,479563.0,4.0,89.0,ball,77.0,False,5
6.0,background,14.0,True,True,True,False,True,standard_13,standard,200_2.2,2.0,no,3733.0,3.0,False,485348.0,5.0,90.0,ball,78.0,False,5
6.0,background,14.0,True,False,True,True,True,standard_15,standard,0_2.2,2.0,yes,660.0,4.0,False,488098.0,6.0,91.0,ball,79.0,False,5
