key_press,rt,time_elapsed,trial_index,trial_type,pid
32.0,1706.0,1710.0,0.0,text,0
32.0,6597.0,9314.0,1.0,text,0
81.0,54922.0,65239.0,2.0,text,0
32.0,1611.0,88088.0,4.0,text,0
32.0,4304.0,145126.0,14.0,text,0
32.0,863.0,146994.0,15.0,text,0
32.0,716.0,205719.0,29.0,text,0
32.0,6857.0,274007.0,43.0,text,0
32.0,602.0,347156.0,57.0,text,0
32.0,5766.0,428090.0,71.0,text,0
32.0,410.0,494668.0,85.0,text,0
32.0,7926.0,571933.0,99.0,text,0
32.0,762.0,647298.0,113.0,text,0
32.0,3075.0,729086.0,127.0,text,0
32.0,6633.0,815014.0,140.0,text,0
32.0,1829.0,862489.0,155.0,text,0
32.0,8815.0,8822.0,0.0,text,1
32.0,18554.0,28411.0,1.0,text,1
81.0,53630.0,83076.0,2.0,text,1
32.0,7015.0,109705.0,4.0,text,1
32.0,9046.0,202305.0,14.0,text,1
32.0,1839.0,205148.0,15.0,text,1
32.0,2548.0,294823.0,29.0,text,1
32.0,1668.0,371160.0,43.0,text,1
32.0,748.0,446788.0,57.0,text,1
32.0,1128.0,527680.0,71.0,text,1
32.0,939.0,608124.0,85.0,text,1
32.0,1845.0,689900.0,99.0,text,1
32.0,863.0,776359.0,113.0,text,1
32.0,742.0,869514.0,127.0,text,1
32.0,2227.0,971162.0,140.0,text,1
32.0,3611.0,1047672.0,155.0,text,1
32.0,6259.0,6262.0,0.0,text,2
32.0,6283.0,13564.0,1.0,text,2
81.0,68856.0,83432.0,2.0,text,2
32.0,3248.0,121100.0,4.0,text,2
32.0,12410.0,205008.0,14.0,text,2
32.0,3810.0,209835.0,15.0,text,2
32.0,1532.0,300520.0,29.0,text,2
32.0,970.0,385984.0,43.0,text,2
32.0,1156.0,469769.0,57.0,text,2
32.0,1075.0,556977.0,71.0,text,2
32.0,1237.0,643933.0,85.0,text,2
32.0,1738.0,733015.0,99.0,text,2
32.0,969.0,866679.0,113.0,text,2
32.0,1001.0,999359.0,127.0,text,2
32.0,949.0,1089672.0,140.0,text,2
32.0,938.0,1155807.0,155.0,text,2
32.0,4106.0,4108.0,0.0,text,3
32.0,22098.0,27211.0,1.0,text,3
81.0,45064.0,73283.0,2.0,text,3
32.0,2946.0,93964.0,4.0,text,3
32.0,9562.0,190564.0,14.0,text,3
32.0,2069.0,193636.0,15.0,text,3
32.0,2892.0,264279.0,29.0,text,3
32.0,2010.0,321812.0,43.0,text,3
32.0,1522.0,378437.0,57.0,text,3
32.0,1427.0,425668.0,71.0,text,3
32.0,1210.0,472004.0,85.0,text,3
32.0,1360.0,516805.0,99.0,text,3
32.0,2154.0,564845.0,113.0,text,3
32.0,699.0,609124.0,127.0,text,3
32.0,1715.0,651372.0,140.0,text,3
32.0,1787.0,705588.0,155.0,text,3
32.0,4679.0,4684.0,0.0,text,4
32.0,12947.0,18641.0,1.0,text,4
81.0,33893.0,53544.0,2.0,text,4
32.0,3022.0,78919.0,4.0,text,4
32.0,8124.0,156517.0,14.0,text,4
32.0,1207.0,158732.0,15.0,text,4
32.0,2666.0,219787.0,29.0,text,4
32.0,1158.0,269105.0,43.0,text,4
32.0,1157.0,325152.0,57.0,text,4
32.0,819.0,382262.0,71.0,text,4
32.0,7465.0,453220.0,85.0,text,4
32.0,1272.0,510642.0,99.0,text,4
32.0,1339.0,611247.0,113.0,text,4
32.0,1159.0,670053.0,127.0,text,4
32.0,3782.0,757795.0,140.0,text,4
32.0,1213.0,822536.0,155.0,text,4
32.0,6849.0,6854.0,0.0,text,5
32.0,28819.0,36704.0,1.0,text,5
81.0,49638.0,87354.0,2.0,text,5
32.0,3477.0,110308.0,4.0,text,5
32.0,10772.0,186344.0,14.0,text,5
32.0,3106.0,190463.0,15.0,text,5
32.0,4895.0,247455.0,29.0,text,5
32.0,3949.0,311968.0,43.0,text,5
32.0,3025.0,358967.0,57.0,text,5
32.0,1762.0,411039.0,71.0,text,5
32.0,1723.0,464995.0,85.0,text,5
32.0,1547.0,515583.0,99.0,text,5
32.0,1581.0,567207.0,113.0,text,5
32.0,1432.0,614935.0,127.0,text,5
32.0,1922.0,656032.0,140.0,text,5
32.0,1556.0,713011.0,155.0,text,5
32.0,1643.0,1649.0,0.0,text,6
32.0,28974.0,31635.0,1.0,text,6
81.0,4436.0,37090.0,2.0,text,6
32.0,1468.0,49737.0,4.0,text,6
32.0,5523.0,5531.0,0.0,text,7
32.0,13980.0,20516.0,1.0,text,7
81.0,12456.0,33979.0,2.0,text,7
32.0,3019.0,58380.0,4.0,text,7
32.0,5184.0,148923.0,14.0,text,7
32.0,1524.0,151449.0,15.0,text,7
32.0,3898.0,239850.0,29.0,text,7
32.0,1229.0,320953.0,43.0,text,7
32.0,8745.0,404363.0,57.0,text,7
32.0,2180.0,490793.0,71.0,text,7
32.0,1142.0,582712.0,85.0,text,7
32.0,970.0,669386.0,99.0,text,7
32.0,1020.0,756489.0,113.0,text,7
32.0,1023.0,856952.0,127.0,text,7
32.0,3856.0,948728.0,140.0,text,7
32.0,319.0,1013977.0,155.0,text,7
32.0,4822.0,4828.0,0.0,text,8
32.0,19367.0,25215.0,1.0,text,8
81.0,92777.0,119009.0,2.0,text,8
32.0,4863.0,159086.0,4.0,text,8
32.0,15742.0,263438.0,14.0,text,8
32.0,4139.0,268589.0,15.0,text,8
32.0,4994.0,334527.0,29.0,text,8
32.0,1935.0,394894.0,43.0,text,8
32.0,5333.0,463648.0,57.0,text,8
32.0,10106.0,524472.0,71.0,text,8
32.0,1922.0,629399.0,85.0,text,8
32.0,1638.0,698333.0,99.0,text,8
32.0,1481.0,777421.0,113.0,text,8
32.0,2042.0,857917.0,127.0,text,8
32.0,2114.0,956671.0,140.0,text,8
32.0,1243.0,1061910.0,155.0,text,8
32.0,4764.0,4772.0,0.0,text,9
32.0,11245.0,17030.0,1.0,text,9
81.0,21145.0,39189.0,2.0,text,9
32.0,12612.0,81074.0,4.0,text,9
32.0,8064.0,149208.0,14.0,text,9
32.0,1845.0,152067.0,15.0,text,9
32.0,2050.0,198675.0,29.0,text,9
32.0,1603.0,236347.0,43.0,text,9
32.0,1165.0,274645.0,57.0,text,9
32.0,1054.0,311141.0,71.0,text,9
32.0,1208.0,344633.0,85.0,text,9
32.0,1639.0,378159.0,99.0,text,9
32.0,892.0,410695.0,113.0,text,9
32.0,837.0,443098.0,127.0,text,9
32.0,973.0,470589.0,140.0,text,9
32.0,749.0,506508.0,155.0,text,9
32.0,24515.0,24521.0,0.0,text,10
32.0,19613.0,45151.0,1.0,text,10
81.0,76360.0,122519.0,2.0,text,10
81.0,29129.0,202713.0,4.0,text,10
32.0,7492.0,245317.0,6.0,text,10
32.0,21180.0,361971.0,16.0,text,10
32.0,4144.0,367123.0,17.0,text,10
32.0,5813.0,455235.0,31.0,text,10
32.0,3473.0,529013.0,45.0,text,10
32.0,2429.0,608237.0,59.0,text,10
32.0,3993.0,694031.0,73.0,text,10
32.0,1731.0,796821.0,87.0,text,10
32.0,2811.0,887271.0,101.0,text,10
32.0,1619.0,997387.0,115.0,text,10
32.0,2956.0,1084844.0,129.0,text,10
32.0,3262.0,1177116.0,142.0,text,10
32.0,1707.0,1280391.0,157.0,text,10
32.0,4711.0,4717.0,0.0,text,11
32.0,17923.0,23650.0,1.0,text,11
81.0,70739.0,95397.0,2.0,text,11
32.0,2060.0,110484.0,4.0,text,11
32.0,2893.0,163070.0,14.0,text,11
32.0,1059.0,165130.0,15.0,text,11
32.0,3019.0,224754.0,29.0,text,11
32.0,1199.0,284524.0,43.0,text,11
32.0,1083.0,350090.0,57.0,text,11
32.0,837.0,423222.0,71.0,text,11
32.0,762.0,491844.0,85.0,text,11
32.0,129426.0,688969.0,99.0,text,11
32.0,706.0,767616.0,113.0,text,11
32.0,828.0,843461.0,127.0,text,11
32.0,828.0,925846.0,140.0,text,11
32.0,1635.0,981841.0,155.0,text,11
32.0,3792.0,3796.0,0.0,text,12
32.0,41007.0,45810.0,1.0,text,12
81.0,461114.0,507931.0,2.0,text,12
32.0,3598.0,537555.0,4.0,text,12
32.0,30413.0,629129.0,14.0,text,12
32.0,1030.0,631168.0,15.0,text,12
32.0,1804.0,740786.0,29.0,text,12
32.0,1822.0,821906.0,43.0,text,12
32.0,3895.0,914770.0,57.0,text,12
32.0,16449.0,1023587.0,71.0,text,12
32.0,1317.0,1121626.0,85.0,text,12
32.0,1154.0,1222291.0,99.0,text,12
32.0,3064.0,1348755.0,113.0,text,12
32.0,1077.0,1455866.0,127.0,text,12
32.0,2137.0,1566346.0,140.0,text,12
32.0,2468.0,1641179.0,155.0,text,12
32.0,1894.0,1900.0,0.0,text,13
32.0,8963.0,11869.0,1.0,text,13
81.0,22401.0,35277.0,2.0,text,13
81.0,19951.0,77679.0,4.0,text,13
32.0,3175.0,93058.0,6.0,text,13
32.0,37503.0,198597.0,16.0,text,13
32.0,1637.0,201239.0,17.0,text,13
32.0,4792.0,253008.0,31.0,text,13
32.0,1753.0,303822.0,45.0,text,13
32.0,1975.0,351211.0,59.0,text,13
32.0,1541.0,399543.0,73.0,text,13
32.0,2804.0,449674.0,87.0,text,13
32.0,863.0,492914.0,101.0,text,13
32.0,3323.0,533667.0,115.0,text,13
32.0,2157.0,571276.0,129.0,text,13
32.0,3104.0,621006.0,142.0,text,13
32.0,2576.0,666665.0,157.0,text,13
32.0,10462.0,10466.0,0.0,text,14
32.0,21232.0,32709.0,1.0,text,14
81.0,39107.0,72823.0,2.0,text,14
32.0,1812.0,100245.0,4.0,text,14
32.0,4818.0,167534.0,14.0,text,14
32.0,1043.0,169580.0,15.0,text,14
32.0,2151.0,240660.0,29.0,text,14
32.0,1051.0,311637.0,43.0,text,14
32.0,1541.0,393206.0,57.0,text,14
32.0,1334.0,535622.0,71.0,text,14
32.0,1365.0,739085.0,85.0,text,14
32.0,1658.0,831846.0,99.0,text,14
32.0,1841.0,983944.0,113.0,text,14
32.0,1099.0,1075254.0,127.0,text,14
32.0,2688.0,1169617.0,140.0,text,14
32.0,2869.0,1218374.0,155.0,text,14
32.0,4804.0,4810.0,0.0,text,15
32.0,12311.0,18130.0,1.0,text,15
81.0,39874.0,59018.0,2.0,text,15
32.0,4424.0,81603.0,4.0,text,15
32.0,14610.0,166354.0,14.0,text,15
32.0,991.0,168352.0,15.0,text,15
32.0,4556.0,222777.0,29.0,text,15
32.0,1569.0,274664.0,43.0,text,15
32.0,1402.0,323657.0,57.0,text,15
32.0,1371.0,374365.0,71.0,text,15
32.0,1012.0,430266.0,85.0,text,15
32.0,1291.0,498778.0,99.0,text,15
32.0,1218.0,565242.0,113.0,text,15
32.0,993.0,625496.0,127.0,text,15
32.0,2464.0,677083.0,140.0,text,15
32.0,1207.0,737517.0,155.0,text,15
32.0,2037.0,2046.0,0.0,text,16
32.0,12574.0,15638.0,1.0,text,16
81.0,32400.0,49053.0,2.0,text,16
32.0,2162.0,73185.0,4.0,text,16
32.0,4915.0,144642.0,14.0,text,16
32.0,1648.0,147295.0,15.0,text,16
32.0,12198.0,245774.0,29.0,text,16
32.0,1309.0,338249.0,43.0,text,16
32.0,1834.0,427752.0,57.0,text,16
32.0,1120.0,523811.0,71.0,text,16
32.0,671.0,625535.0,85.0,text,16
32.0,713.0,718430.0,99.0,text,16
32.0,702.0,824766.0,113.0,text,16
32.0,793.0,921841.0,127.0,text,16
32.0,3756.0,1027528.0,140.0,text,16
32.0,1988.0,1106427.0,155.0,text,16
32.0,4083.0,4086.0,0.0,text,17
32.0,25035.0,30126.0,1.0,text,17
81.0,34948.0,66081.0,2.0,text,17
32.0,3736.0,106864.0,4.0,text,17
32.0,3089.0,209835.0,14.0,text,17
32.0,1448.0,212285.0,15.0,text,17
32.0,1801.0,297750.0,29.0,text,17
32.0,3221.0,387608.0,43.0,text,17
32.0,1141.0,479344.0,57.0,text,17
32.0,676.0,572577.0,71.0,text,17
32.0,969.0,680008.0,85.0,text,17
32.0,1006.0,781700.0,99.0,text,17
32.0,1606.0,915469.0,113.0,text,17
32.0,603.0,1024139.0,127.0,text,17
32.0,2972.0,1126986.0,140.0,text,17
32.0,2131.0,1266572.0,155.0,text,17
32.0,3618.0,3621.0,0.0,text,18
32.0,13521.0,18148.0,1.0,text,18
81.0,25651.0,44804.0,2.0,text,18
32.0,4436.0,63030.0,4.0,text,18
32.0,10476.0,135517.0,14.0,text,18
32.0,2162.0,138685.0,15.0,text,18
32.0,7.0,208171.0,29.0,text,18
32.0,1176.0,262896.0,43.0,text,18
32.0,3688.0,302422.0,57.0,text,18
32.0,2832.0,343907.0,71.0,text,18
32.0,2319.0,388833.0,85.0,text,18
32.0,1240.0,429527.0,99.0,text,18
32.0,3131.0,477456.0,113.0,text,18
32.0,1184.0,522606.0,127.0,text,18
32.0,2089.0,580306.0,140.0,text,18
32.0,2227.0,636926.0,155.0,text,18
32.0,5833.0,5844.0,0.0,text,19
32.0,22613.0,29486.0,1.0,text,19
81.0,65996.0,96500.0,2.0,text,19
81.0,20220.0,145428.0,4.0,text,19
32.0,16199.0,170631.0,6.0,text,19
32.0,39688.0,271639.0,16.0,text,19
32.0,2235.0,274888.0,17.0,text,19
32.0,19845.0,342173.0,31.0,text,19
32.0,6690.0,396145.0,45.0,text,19
32.0,15500.0,457515.0,59.0,text,19
32.0,5414.0,503910.0,73.0,text,19
32.0,2082.0,544778.0,87.0,text,19
32.0,1375.0,587620.0,101.0,text,19
32.0,1324.0,626684.0,115.0,text,19
32.0,2103.0,666461.0,129.0,text,19
32.0,2987.0,701710.0,142.0,text,19
32.0,4701.0,744089.0,157.0,text,19
32.0,218152.0,218156.0,0.0,text,20
32.0,24429.0,243610.0,1.0,text,20
81.0,23258.0,267874.0,2.0,text,20
81.0,32465.0,313973.0,4.0,text,20
32.0,2731.0,328900.0,6.0,text,20
32.0,28799.0,412822.0,16.0,text,20
32.0,1151.0,414982.0,17.0,text,20
32.0,27102.0,489562.0,31.0,text,20
32.0,1581.0,535354.0,45.0,text,20
32.0,1294.0,577827.0,59.0,text,20
32.0,1226.0,626349.0,73.0,text,20
32.0,1202.0,669654.0,87.0,text,20
32.0,702.0,720239.0,101.0,text,20
32.0,1020.0,760634.0,115.0,text,20
32.0,921.0,804682.0,129.0,text,20
32.0,1804.0,848003.0,142.0,text,20
32.0,1670.0,897717.0,157.0,text,20
32.0,2401.0,2408.0,0.0,text,21
32.0,11632.0,15068.0,1.0,text,21
81.0,23281.0,39372.0,2.0,text,21
32.0,1456.0,50540.0,4.0,text,21
32.0,8696.0,125682.0,14.0,text,21
32.0,1282.0,127980.0,15.0,text,21
32.0,6296.0,183885.0,29.0,text,21
32.0,1287.0,229457.0,43.0,text,21
32.0,40047.0,310648.0,57.0,text,21
32.0,916.0,354110.0,71.0,text,21
32.0,882.0,394818.0,85.0,text,21
32.0,931.0,438301.0,99.0,text,21
32.0,572.0,485532.0,113.0,text,21
32.0,548.0,532539.0,127.0,text,21
32.0,1509.0,577882.0,140.0,text,21
32.0,974.0,629294.0,155.0,text,21
32.0,2152.0,2156.0,0.0,text,22
32.0,9713.0,12877.0,1.0,text,22
81.0,8574.0,22453.0,2.0,text,22
81.0,13017.0,52038.0,4.0,text,22
32.0,2391.0,61996.0,6.0,text,22
32.0,14422.0,132762.0,16.0,text,22
32.0,862.0,134637.0,17.0,text,22
32.0,2312.0,199393.0,31.0,text,22
32.0,856.0,262816.0,45.0,text,22
32.0,755.0,330180.0,59.0,text,22
32.0,1421.0,397117.0,73.0,text,22
32.0,1859.0,470009.0,87.0,text,22
32.0,507.0,542579.0,101.0,text,22
32.0,746.0,617910.0,115.0,text,22
32.0,709.0,697821.0,129.0,text,22
32.0,863.0,774737.0,142.0,text,22
32.0,2290.0,819499.0,157.0,text,22
32.0,6857.0,6864.0,0.0,text,23
32.0,28314.0,36187.0,1.0,text,23
81.0,45778.0,82977.0,2.0,text,23
32.0,5332.0,111394.0,4.0,text,23
32.0,11471.0,221671.0,14.0,text,23
32.0,2147.0,224827.0,15.0,text,23
32.0,5109.0,299600.0,29.0,text,23
32.0,2963.0,377087.0,43.0,text,23
32.0,6354.0,465726.0,57.0,text,23
32.0,1802.0,560603.0,71.0,text,23
32.0,1893.0,659138.0,85.0,text,23
32.0,1790.0,740417.0,99.0,text,23
32.0,1559.0,864822.0,113.0,text,23
32.0,6054.0,985016.0,127.0,text,23
32.0,1658.0,1096469.0,140.0,text,23
32.0,1126.0,1214708.0,155.0,text,23
32.0,20526.0,20530.0,0.0,text,24
32.0,21225.0,42763.0,1.0,text,24
81.0,16011.0,59779.0,2.0,text,24
81.0,11312.0,91814.0,4.0,text,24
32.0,72643.0,175305.0,6.0,text,24
32.0,7348.0,264186.0,16.0,text,24
32.0,1480.0,266670.0,17.0,text,24
32.0,1974.0,313919.0,31.0,text,24
32.0,1409.0,355873.0,45.0,text,24
32.0,1060.0,403733.0,59.0,text,24
32.0,960.0,449002.0,73.0,text,24
32.0,215.0,487064.0,87.0,text,24
32.0,1080.0,529081.0,101.0,text,24
32.0,1151.0,577046.0,115.0,text,24
32.0,1040.0,627640.0,129.0,text,24
32.0,2316.0,683318.0,142.0,text,24
32.0,971.0,750097.0,157.0,text,24
32.0,3798.0,3803.0,0.0,text,25
32.0,24825.0,29641.0,1.0,text,25
81.0,25130.0,55785.0,2.0,text,25
81.0,17571.0,97656.0,4.0,text,25
81.0,13641.0,126096.0,6.0,text,25
81.0,61269.0,208784.0,8.0,text,25
32.0,2972.0,240761.0,10.0,text,25
32.0,5019.0,308185.0,20.0,text,25
32.0,1670.0,310856.0,21.0,text,25
32.0,4160.0,411873.0,35.0,text,25
32.0,768.0,477424.0,49.0,text,25
32.0,906.0,551871.0,63.0,text,25
32.0,1035.0,630040.0,77.0,text,25
32.0,896.0,704575.0,91.0,text,25
32.0,1156.0,789912.0,105.0,text,25
32.0,14157.0,897505.0,119.0,text,25
32.0,873.0,989704.0,133.0,text,25
32.0,1216.0,1096417.0,146.0,text,25
32.0,2074.0,1162783.0,161.0,text,25
32.0,4980.0,4984.0,0.0,text,26
32.0,612436.0,618435.0,1.0,text,26
81.0,27064.0,646530.0,2.0,text,26
32.0,1600.0,656000.0,4.0,text,26
32.0,4408.0,717198.0,14.0,text,26
32.0,920.0,719133.0,15.0,text,26
32.0,758.0,755747.0,29.0,text,26
32.0,1037.0,790466.0,43.0,text,26
32.0,1039.0,829345.0,57.0,text,26
32.0,602.0,866487.0,71.0,text,26
32.0,519.0,904822.0,85.0,text,26
32.0,481.0,944221.0,99.0,text,26
32.0,537.0,996384.0,113.0,text,26
32.0,409.0,1036465.0,127.0,text,26
32.0,631.0,1090151.0,140.0,text,26
32.0,654.0,1154293.0,155.0,text,26
32.0,2556.0,2559.0,0.0,text,27
32.0,8627.0,12215.0,1.0,text,27
81.0,21783.0,35020.0,2.0,text,27
32.0,2201.0,63946.0,4.0,text,27
32.0,8348.0,131022.0,14.0,text,27
32.0,1351.0,133391.0,15.0,text,27
32.0,2535.0,192626.0,29.0,text,27
32.0,1236.0,239173.0,43.0,text,27
32.0,711.0,293717.0,57.0,text,27
32.0,1244.0,343730.0,71.0,text,27
32.0,1318.0,400192.0,85.0,text,27
32.0,1215.0,435708.0,99.0,text,27
32.0,1225.0,477086.0,113.0,text,27
32.0,714.0,516063.0,127.0,text,27
32.0,624.0,565491.0,140.0,text,27
32.0,1104.0,624963.0,155.0,text,27
32.0,31475.0,31493.0,0.0,text,28
32.0,4898.0,37477.0,1.0,text,28
81.0,3839.0,42332.0,2.0,text,28
32.0,3252.0,59736.0,4.0,text,28
32.0,6785.0,137798.0,14.0,text,28
32.0,1963.0,140771.0,15.0,text,28
32.0,3352.0,221267.0,29.0,text,28
32.0,1840.0,294643.0,43.0,text,28
32.0,2116.0,371567.0,57.0,text,28
32.0,3325.0,453664.0,71.0,text,28
32.0,1617.0,536102.0,85.0,text,28
32.0,5531.0,631064.0,99.0,text,28
32.0,1577.0,723246.0,113.0,text,28
32.0,2276.0,820573.0,127.0,text,28
32.0,6031.0,914158.0,140.0,text,28
32.0,5026.0,979887.0,155.0,text,28
32.0,2311.0,2313.0,0.0,text,29
32.0,19301.0,22617.0,1.0,text,29
81.0,31727.0,55350.0,2.0,text,29
32.0,3049.0,81961.0,4.0,text,29
32.0,27137.0,170680.0,14.0,text,29
32.0,1064.0,172751.0,15.0,text,29
32.0,326.0,213979.0,29.0,text,29
32.0,2013.0,282574.0,43.0,text,29
32.0,252.0,323669.0,57.0,text,29
32.0,1147.0,367630.0,71.0,text,29
32.0,878.0,418172.0,85.0,text,29
32.0,886.0,463325.0,99.0,text,29
32.0,1042.0,499243.0,113.0,text,29
32.0,882.0,548025.0,127.0,text,29
32.0,1175.0,595318.0,140.0,text,29
32.0,1157.0,644963.0,155.0,text,29
32.0,2501.0,2504.0,0.0,text,30
32.0,265316.0,268826.0,1.0,text,30
81.0,21052.0,290886.0,2.0,text,30
32.0,1081.0,304499.0,4.0,text,30
32.0,5365.0,395359.0,14.0,text,30
32.0,2126.0,398486.0,15.0,text,30
32.0,5605.0,806081.0,29.0,text,30
32.0,1022.0,876733.0,43.0,text,30
32.0,897.0,962158.0,57.0,text,30
32.0,38555.0,1087366.0,71.0,text,30
32.0,772.0,1207497.0,85.0,text,30
32.0,933.0,1298458.0,99.0,text,30
32.0,663.0,1382578.0,113.0,text,30
32.0,1348.0,1471749.0,127.0,text,30
32.0,996.0,1548421.0,140.0,text,30
32.0,907.0,1594841.0,155.0,text,30
32.0,3923.0,3929.0,0.0,text,31
32.0,52394.0,57420.0,1.0,text,31
81.0,49896.0,108354.0,2.0,text,31
81.0,19234.0,156355.0,4.0,text,31
32.0,3792.0,170918.0,6.0,text,31
32.0,7273.0,242385.0,16.0,text,31
32.0,1231.0,244643.0,17.0,text,31
32.0,4105.0,298201.0,31.0,text,31
32.0,4018.0,352406.0,45.0,text,31
32.0,2360.0,398689.0,59.0,text,31
32.0,1958.0,444910.0,73.0,text,31
32.0,2591.0,491333.0,87.0,text,31
32.0,2282.0,546246.0,101.0,text,31
32.0,2401.0,604490.0,115.0,text,31
32.0,2224.0,660099.0,129.0,text,31
32.0,4574.0,719058.0,142.0,text,31
32.0,3262.0,788544.0,157.0,text,31
32.0,4208.0,4215.0,0.0,text,32
32.0,27894.0,33123.0,1.0,text,32
81.0,37279.0,71416.0,2.0,text,32
32.0,2574.0,87354.0,4.0,text,32
32.0,7016.0,156620.0,14.0,text,32
32.0,1114.0,158737.0,15.0,text,32
32.0,1250.0,240752.0,29.0,text,32
32.0,862.0,333049.0,43.0,text,32
32.0,44806.0,485171.0,57.0,text,32
32.0,1224.0,574082.0,71.0,text,32
32.0,724.0,676608.0,85.0,text,32
32.0,9561.0,789722.0,99.0,text,32
32.0,2165.0,905528.0,113.0,text,32
32.0,852.0,1132565.0,127.0,text,32
32.0,4818.0,1265729.0,140.0,text,32
32.0,2617.0,1352113.0,155.0,text,32
32.0,11449.0,11456.0,0.0,text,33
32.0,34137.0,46614.0,1.0,text,33
81.0,60460.0,108087.0,2.0,text,33
32.0,2182.0,131110.0,4.0,text,33
32.0,4919.0,198923.0,14.0,text,33
32.0,816.0,200743.0,15.0,text,33
32.0,29403.0,327659.0,29.0,text,33
32.0,934.0,411496.0,43.0,text,33
32.0,980.0,492085.0,57.0,text,33
32.0,637.0,571449.0,71.0,text,33
32.0,689.0,648809.0,85.0,text,33
32.0,794.0,725432.0,99.0,text,33
32.0,528.0,816014.0,113.0,text,33
32.0,1069.0,908075.0,127.0,text,33
32.0,873.0,1009650.0,140.0,text,33
32.0,2688.0,1068592.0,155.0,text,33
32.0,1864.0,1872.0,0.0,text,34
32.0,24462.0,27342.0,1.0,text,34
81.0,30250.0,58601.0,2.0,text,34
81.0,9509.0,95025.0,4.0,text,34
32.0,4621.0,115745.0,6.0,text,34
32.0,6981.0,185445.0,16.0,text,34
32.0,1137.0,187589.0,17.0,text,34
32.0,3231.0,242390.0,31.0,text,34
32.0,1084.0,286272.0,45.0,text,34
32.0,1611.0,350274.0,59.0,text,34
32.0,1237.0,388354.0,73.0,text,34
32.0,1309.0,427319.0,87.0,text,34
32.0,1139.0,491418.0,101.0,text,34
32.0,1516.0,524707.0,115.0,text,34
32.0,1578.0,554573.0,129.0,text,34
32.0,1572.0,583460.0,142.0,text,34
32.0,4940.0,623106.0,157.0,text,34
32.0,2539.0,2543.0,0.0,text,35
32.0,9883.0,13432.0,1.0,text,35
81.0,13418.0,27855.0,2.0,text,35
81.0,18015.0,70526.0,4.0,text,35
81.0,638.0,77243.0,6.0,text,35
32.0,1770.0,83599.0,8.0,text,35
32.0,2956.0,139793.0,18.0,text,35
32.0,2734.0,143528.0,19.0,text,35
32.0,2638.0,213166.0,33.0,text,35
32.0,700.0,282545.0,47.0,text,35
32.0,670.0,355266.0,61.0,text,35
32.0,626.0,425308.0,75.0,text,35
32.0,694.0,495779.0,89.0,text,35
32.0,606.0,571345.0,103.0,text,35
32.0,1498.0,649691.0,117.0,text,35
32.0,417.0,727440.0,131.0,text,35
32.0,2778.0,811410.0,144.0,text,35
32.0,1000.0,851888.0,159.0,text,35
32.0,3654.0,3658.0,0.0,text,36
32.0,13288.0,17977.0,1.0,text,36
81.0,38634.0,57629.0,2.0,text,36
32.0,2521.0,82787.0,4.0,text,36
32.0,231685.0,394267.0,14.0,text,36
32.0,2117.0,397386.0,15.0,text,36
32.0,3470.0,484238.0,29.0,text,36
32.0,1214.0,573502.0,43.0,text,36
32.0,58299.0,720788.0,57.0,text,36
32.0,690.0,804617.0,71.0,text,36
32.0,763.0,890142.0,85.0,text,36
32.0,922.0,1113373.0,99.0,text,36
32.0,1198.0,1219850.0,113.0,text,36
32.0,293.0,1316044.0,127.0,text,36
32.0,5020.0,1411667.0,140.0,text,36
32.0,2195.0,1476866.0,155.0,text,36
32.0,5708.0,5717.0,0.0,text,37
32.0,26198.0,32935.0,1.0,text,37
81.0,39256.0,73198.0,2.0,text,37
32.0,4583.0,119709.0,4.0,text,37
32.0,7244.0,224492.0,14.0,text,37
32.0,2969.0,228473.0,15.0,text,37
32.0,2019.0,339815.0,29.0,text,37
32.0,1092.0,420843.0,43.0,text,37
32.0,1348.0,508297.0,57.0,text,37
32.0,1018.0,579734.0,71.0,text,37
32.0,634.0,659452.0,85.0,text,37
32.0,1055.0,794383.0,99.0,text,37
32.0,927.0,875684.0,113.0,text,37
32.0,1835.0,961457.0,127.0,text,37
32.0,1325.0,1040981.0,140.0,text,37
32.0,2368.0,1083090.0,155.0,text,37
32.0,7058.0,7066.0,0.0,text,38
32.0,10881.0,18959.0,1.0,text,38
81.0,18410.0,38383.0,2.0,text,38
81.0,5037.0,67528.0,4.0,text,38
81.0,903.0,76105.0,6.0,text,38
81.0,585.0,88128.0,8.0,text,38
32.0,2323.0,95854.0,10.0,text,38
32.0,3443.0,152536.0,20.0,text,38
32.0,1407.0,154954.0,21.0,text,38
32.0,9678.0,9688.0,0.0,text,39
32.0,21418.0,32147.0,1.0,text,39
81.0,56974.0,90129.0,2.0,text,39
32.0,7136.0,173748.0,4.0,text,39
32.0,17186.0,260800.0,14.0,text,39
32.0,1204.0,263029.0,15.0,text,39
32.0,3826.0,319996.0,29.0,text,39
32.0,1590.0,369838.0,43.0,text,39
32.0,1515.0,422281.0,57.0,text,39
32.0,1149.0,470442.0,71.0,text,39
32.0,1231.0,511797.0,85.0,text,39
32.0,688.0,549770.0,99.0,text,39
32.0,1100.0,590179.0,113.0,text,39
32.0,266.0,629155.0,127.0,text,39
32.0,1583.0,681018.0,140.0,text,39
32.0,1294.0,754413.0,155.0,text,39
32.0,2741.0,2747.0,0.0,text,40
32.0,2478.0,6249.0,1.0,text,40
81.0,16469.0,23726.0,2.0,text,40
32.0,2798.0,46142.0,4.0,text,40
32.0,6280.0,102351.0,14.0,text,40
32.0,641.0,104021.0,15.0,text,40
32.0,714.0,142554.0,29.0,text,40
32.0,1039.0,229399.0,43.0,text,40
32.0,956.0,262587.0,57.0,text,40
32.0,17768.0,313954.0,71.0,text,40
32.0,1272.0,356980.0,85.0,text,40
32.0,757.0,396912.0,99.0,text,40
32.0,856.0,437775.0,113.0,text,40
32.0,737.0,469262.0,127.0,text,40
32.0,2137.0,499865.0,140.0,text,40
32.0,2060.0,548565.0,155.0,text,40
32.0,10370.0,10391.0,0.0,text,41
32.0,13099.0,24553.0,1.0,text,41
81.0,33834.0,59448.0,2.0,text,41
32.0,1958.0,80581.0,4.0,text,41
32.0,7105.0,144839.0,14.0,text,41
32.0,1590.0,147438.0,15.0,text,41
32.0,2035.0,194150.0,29.0,text,41
32.0,1431.0,236602.0,43.0,text,41
32.0,1021.0,275731.0,57.0,text,41
32.0,1299.0,319752.0,71.0,text,41
32.0,1102.0,360798.0,85.0,text,41
32.0,771.0,407923.0,99.0,text,41
32.0,1300.0,448137.0,113.0,text,41
32.0,1569.0,497845.0,127.0,text,41
32.0,3440.0,548701.0,140.0,text,41
32.0,1432.0,603614.0,155.0,text,41
32.0,3919.0,3922.0,0.0,text,42
32.0,13372.0,18327.0,1.0,text,42
81.0,29328.0,48663.0,2.0,text,42
81.0,5511.0,66580.0,4.0,text,42
81.0,8899.0,97484.0,6.0,text,42
32.0,1684.0,108523.0,8.0,text,42
32.0,20410.0,197355.0,18.0,text,42
32.0,2960.0,201326.0,19.0,text,42
32.0,2274.0,256890.0,33.0,text,42
32.0,1203.0,303351.0,47.0,text,42
32.0,283.0,351704.0,61.0,text,42
32.0,1577.0,397228.0,75.0,text,42
32.0,266.0,448177.0,89.0,text,42
32.0,1924.0,498029.0,103.0,text,42
32.0,1767.0,559947.0,117.0,text,42
32.0,1563.0,620834.0,131.0,text,42
32.0,1353.0,665876.0,144.0,text,42
32.0,1797.0,720799.0,159.0,text,42
32.0,21224.0,21232.0,0.0,text,43
32.0,60068.0,82347.0,1.0,text,43
81.0,77259.0,160619.0,2.0,text,43
32.0,2799.0,191609.0,4.0,text,43
32.0,29706.0,323728.0,14.0,text,43
32.0,1553.0,326308.0,15.0,text,43
32.0,3561.0,428498.0,29.0,text,43
32.0,6651.0,526024.0,43.0,text,43
32.0,20720.0,626295.0,57.0,text,43
32.0,2917.0,718799.0,71.0,text,43
32.0,5612.0,800040.0,85.0,text,43
32.0,6194.0,872784.0,99.0,text,43
32.0,2520.0,941992.0,113.0,text,43
32.0,4403.0,1046276.0,127.0,text,43
32.0,4351.0,1123237.0,140.0,text,43
32.0,5229.0,1214811.0,155.0,text,43
32.0,2777.0,2784.0,0.0,text,44
32.0,15808.0,19607.0,1.0,text,44
81.0,54239.0,74860.0,2.0,text,44
32.0,2295.0,93951.0,4.0,text,44
32.0,11349.0,161363.0,14.0,text,44
32.0,912.0,163287.0,15.0,text,44
32.0,6894.0,210411.0,29.0,text,44
32.0,1082.0,253425.0,43.0,text,44
32.0,701.0,288705.0,57.0,text,44
32.0,627.0,331270.0,71.0,text,44
32.0,493.0,368403.0,85.0,text,44
32.0,518.0,406962.0,99.0,text,44
32.0,641.0,438685.0,113.0,text,44
32.0,556.0,470593.0,127.0,text,44
32.0,556.0,497268.0,140.0,text,44
32.0,599.0,529410.0,155.0,text,44
32.0,10114.0,10121.0,0.0,text,45
32.0,14801.0,25972.0,1.0,text,45
81.0,43903.0,70908.0,2.0,text,45
32.0,4626.0,92043.0,4.0,text,45
32.0,5617.0,171291.0,14.0,text,45
32.0,1019.0,173324.0,15.0,text,45
32.0,2384.0,292786.0,29.0,text,45
32.0,529.0,372924.0,43.0,text,45
32.0,1548.0,456969.0,57.0,text,45
32.0,1248.0,553777.0,71.0,text,45
32.0,1024.0,658552.0,85.0,text,45
32.0,1049.0,746074.0,99.0,text,45
32.0,1175.0,851616.0,113.0,text,45
32.0,3689.0,959232.0,127.0,text,45
32.0,1314.0,1061297.0,140.0,text,45
32.0,2966.0,1805862.0,155.0,text,45
32.0,6956.0,6960.0,0.0,text,46
32.0,9378.0,17374.0,1.0,text,46
81.0,22353.0,40746.0,2.0,text,46
32.0,4144.0,60070.0,4.0,text,46
32.0,12474.0,121587.0,14.0,text,46
32.0,1242.0,123842.0,15.0,text,46
32.0,4819.0,171431.0,29.0,text,46
32.0,4747.0,214630.0,43.0,text,46
32.0,5576.0,259223.0,57.0,text,46
32.0,1635.0,297371.0,71.0,text,46
32.0,2008.0,334741.0,85.0,text,46
32.0,1501.0,376585.0,99.0,text,46
32.0,1238.0,414638.0,113.0,text,46
32.0,1107.0,455492.0,127.0,text,46
32.0,2592.0,490267.0,140.0,text,46
32.0,1165.0,542459.0,155.0,text,46
32.0,1850.0,1860.0,0.0,text,47
32.0,10651.0,13522.0,1.0,text,47
81.0,743127.0,757659.0,2.0,text,47
32.0,1780.0,773953.0,4.0,text,47
32.0,981.0,865203.0,14.0,text,47
32.0,693.0,866909.0,15.0,text,47
32.0,138.0,998942.0,29.0,text,47
32.0,1446.0,1033469.0,43.0,text,47
32.0,453.0,1070417.0,57.0,text,47
32.0,641.0,1104345.0,71.0,text,47
32.0,4439.0,1147941.0,85.0,text,47
32.0,723.0,1219387.0,99.0,text,47
32.0,610.0,1252149.0,113.0,text,47
32.0,224.0,1283185.0,127.0,text,47
32.0,719.0,1317917.0,140.0,text,47
32.0,1052.0,1352887.0,155.0,text,47
32.0,2573.0,2576.0,0.0,text,48
32.0,17953.0,21544.0,1.0,text,48
81.0,20969.0,43526.0,2.0,text,48
81.0,10318.0,81462.0,4.0,text,48
32.0,2377.0,91586.0,6.0,text,48
32.0,2698.0,140434.0,16.0,text,48
32.0,1795.0,143237.0,17.0,text,48
32.0,776.0,194120.0,31.0,text,48
32.0,1153.0,236736.0,45.0,text,48
32.0,436.0,273491.0,59.0,text,48
32.0,354.0,313902.0,73.0,text,48
32.0,497.0,355794.0,87.0,text,48
32.0,381.0,392901.0,101.0,text,48
32.0,975.0,428575.0,115.0,text,48
32.0,637.0,474667.0,129.0,text,48
32.0,906.0,510006.0,142.0,text,48
32.0,1039.0,557908.0,157.0,text,48
32.0,2914.0,2945.0,0.0,text,49
32.0,3010.0,7015.0,1.0,text,49
81.0,17825.0,25854.0,2.0,text,49
32.0,2760.0,39900.0,4.0,text,49
32.0,6500.0,106692.0,14.0,text,49
32.0,1777.0,109472.0,15.0,text,49
32.0,1466.0,189571.0,29.0,text,49
32.0,1284.0,274226.0,43.0,text,49
32.0,698.0,349932.0,57.0,text,49
32.0,1510.0,430002.0,71.0,text,49
32.0,163440.0,675566.0,85.0,text,49
32.0,876.0,761868.0,99.0,text,49
32.0,660.0,849583.0,113.0,text,49
32.0,2818.0,952265.0,127.0,text,49
32.0,1830.0,1050003.0,140.0,text,49
32.0,2211.0,1106717.0,155.0,text,49
32.0,5796.0,5801.0,0.0,text,50
32.0,11957.0,18816.0,1.0,text,50
81.0,31695.0,51564.0,2.0,text,50
32.0,2005.0,67094.0,4.0,text,50
32.0,109564.0,245993.0,14.0,text,50
32.0,948.0,247988.0,15.0,text,50
32.0,1272.0,325585.0,29.0,text,50
32.0,1246.0,398872.0,43.0,text,50
32.0,2449.0,469465.0,57.0,text,50
32.0,1859.0,547425.0,71.0,text,50
32.0,1170.0,625163.0,85.0,text,50
32.0,5865.0,703339.0,99.0,text,50
32.0,3261.0,804699.0,113.0,text,50
32.0,2170.0,970719.0,127.0,text,50
32.0,5885.0,1063588.0,140.0,text,50
32.0,2251.0,1116315.0,155.0,text,50
32.0,3156.0,3164.0,0.0,text,51
32.0,35447.0,39645.0,1.0,text,51
81.0,47620.0,88296.0,2.0,text,51
32.0,2304.0,143752.0,4.0,text,51
32.0,6253.0,223521.0,14.0,text,51
32.0,880.0,225414.0,15.0,text,51
32.0,526.0,303175.0,29.0,text,51
32.0,454.0,376108.0,43.0,text,51
32.0,424.0,446343.0,57.0,text,51
32.0,794.0,513206.0,71.0,text,51
32.0,958.0,589462.0,85.0,text,51
32.0,708.0,666409.0,99.0,text,51
32.0,581.0,751084.0,113.0,text,51
32.0,677.0,844137.0,127.0,text,51
32.0,744.0,929657.0,140.0,text,51
32.0,3711.0,987017.0,155.0,text,51
32.0,2718.0,2723.0,0.0,text,52
32.0,809085.0,812817.0,1.0,text,52
81.0,17506.0,831331.0,2.0,text,52
32.0,2538.0,858915.0,4.0,text,52
32.0,7287.0,920736.0,14.0,text,52
32.0,913.0,922656.0,15.0,text,52
32.0,1429.0,963137.0,29.0,text,52
32.0,661.0,1010154.0,43.0,text,52
32.0,609.0,1045811.0,57.0,text,52
32.0,1264.0,1091382.0,71.0,text,52
32.0,854.0,1131574.0,85.0,text,52
32.0,527.0,1183544.0,99.0,text,52
32.0,790.0,1227577.0,113.0,text,52
32.0,381.0,1273678.0,127.0,text,52
32.0,1766.0,1330725.0,140.0,text,52
32.0,875.0,1389221.0,155.0,text,52
32.0,4969.0,4975.0,0.0,text,53
32.0,4018.0,9999.0,1.0,text,53
81.0,45232.0,56240.0,2.0,text,53
32.0,4646.0,80721.0,4.0,text,53
32.0,7937.0,167062.0,14.0,text,53
32.0,2237.0,170302.0,15.0,text,53
32.0,3346.0,250780.0,29.0,text,53
32.0,1488.0,338535.0,43.0,text,53
32.0,4941.0,421325.0,57.0,text,53
32.0,33619.0,540180.0,71.0,text,53
32.0,1008.0,627278.0,85.0,text,53
32.0,1496.0,712573.0,99.0,text,53
32.0,1668.0,804774.0,113.0,text,53
32.0,3356.0,898936.0,127.0,text,53
32.0,6659.0,1000001.0,140.0,text,53
32.0,4400.0,1072276.0,155.0,text,53
32.0,23155.0,23161.0,0.0,text,54
32.0,1131.0,1135.0,0.0,text,54
32.0,8598.0,10745.0,1.0,text,54
81.0,5410.0,17164.0,2.0,text,54
32.0,1287.0,31694.0,4.0,text,54
32.0,3151.0,95508.0,14.0,text,54
32.0,780.0,97295.0,15.0,text,54
32.0,788.0,179681.0,29.0,text,54
32.0,1133.0,223835.0,43.0,text,54
32.0,1054.0,262348.0,57.0,text,54
32.0,911.0,299454.0,71.0,text,54
32.0,1274.0,350084.0,85.0,text,54
32.0,875.0,391987.0,99.0,text,54
32.0,848.0,460878.0,113.0,text,54
32.0,893.0,513897.0,127.0,text,54
32.0,789.0,554139.0,140.0,text,54
32.0,798.0,611646.0,155.0,text,54
32.0,17718.0,17726.0,0.0,text,55
32.0,24602.0,43374.0,1.0,text,55
81.0,51712.0,96101.0,2.0,text,55
81.0,18061.0,137485.0,4.0,text,55
32.0,4976.0,156977.0,6.0,text,55
32.0,8227.0,239682.0,16.0,text,55
32.0,2285.0,242970.0,17.0,text,55
32.0,1325.0,318537.0,31.0,text,55
32.0,803.0,386648.0,45.0,text,55
32.0,1011.0,457012.0,59.0,text,55
32.0,1025.0,526822.0,73.0,text,55
32.0,958.0,600297.0,87.0,text,55
32.0,948.0,683473.0,101.0,text,55
32.0,926.0,766721.0,115.0,text,55
32.0,809.0,852476.0,129.0,text,55
32.0,4910.0,942476.0,142.0,text,55
32.0,2554.0,1010644.0,157.0,text,55
32.0,5593.0,5602.0,0.0,text,56
32.0,6101.0,6159.0,0.0,text,56
32.0,49982.0,49996.0,0.0,text,56
32.0,5261.0,56268.0,1.0,text,56
81.0,120752.0,178025.0,2.0,text,56
81.0,33684.0,252470.0,4.0,text,56
32.0,10328.0,281488.0,6.0,text,56
32.0,4285.0,412929.0,16.0,text,56
32.0,2172.0,416116.0,17.0,text,56
32.0,3382.0,506338.0,31.0,text,56
32.0,3981.0,598333.0,45.0,text,56
32.0,1100.0,716229.0,59.0,text,56
32.0,721.0,811862.0,73.0,text,56
32.0,6056.0,917674.0,87.0,text,56
32.0,1120.0,1005997.0,101.0,text,56
32.0,1183.0,1115347.0,115.0,text,56
32.0,3545.0,1187826.0,129.0,text,56
32.0,4446.0,1279361.0,142.0,text,56
32.0,3130.0,1388808.0,157.0,text,56
32.0,9073.0,9076.0,0.0,text,57
32.0,15799.0,25931.0,1.0,text,57
81.0,21582.0,48524.0,2.0,text,57
81.0,8791.0,110484.0,4.0,text,57
81.0,2087.0,121342.0,6.0,text,57
32.0,2228.0,179792.0,8.0,text,57
32.0,2777.0,222782.0,18.0,text,57
32.0,889.0,224678.0,19.0,text,57
32.0,2219.0,255730.0,33.0,text,57
32.0,151.0,281682.0,47.0,text,57
32.0,242.0,304569.0,61.0,text,57
32.0,967.0,371362.0,75.0,text,57
32.0,339.0,399163.0,89.0,text,57
32.0,1043.0,437274.0,103.0,text,57
32.0,23.0,523172.0,117.0,text,57
32.0,689.0,564943.0,131.0,text,57
32.0,805.0,584761.0,144.0,text,57
32.0,2848.0,619970.0,159.0,text,57
32.0,4642.0,4648.0,0.0,text,58
32.0,24812.0,30479.0,1.0,text,58
81.0,37089.0,68568.0,2.0,text,58
32.0,4347.0,103004.0,4.0,text,58
32.0,20953.0,194536.0,14.0,text,58
32.0,2038.0,197574.0,15.0,text,58
32.0,4070.0,270309.0,29.0,text,58
32.0,2522.0,328951.0,43.0,text,58
32.0,5096.0,394271.0,57.0,text,58
32.0,1990.0,451261.0,71.0,text,58
32.0,20880.0,533729.0,85.0,text,58
32.0,2070.0,595363.0,99.0,text,58
32.0,23513.0,688940.0,113.0,text,58
32.0,1948.0,745193.0,127.0,text,58
32.0,2054.0,796064.0,140.0,text,58
32.0,1750.0,854765.0,155.0,text,58
32.0,2529.0,2548.0,0.0,text,59
32.0,5054.0,8613.0,1.0,text,59
81.0,5503.0,15124.0,2.0,text,59
32.0,3870.0,27410.0,4.0,text,59
32.0,1186.0,80377.0,14.0,text,59
32.0,1528.0,82906.0,15.0,text,59
32.0,865.0,169962.0,29.0,text,59
32.0,896.0,258051.0,43.0,text,59
32.0,194137.0,546255.0,57.0,text,59
32.0,1318.0,665608.0,71.0,text,59
32.0,1290.0,768761.0,85.0,text,59
32.0,5660.0,867097.0,99.0,text,59
32.0,89439.0,1062681.0,113.0,text,59
32.0,2755.0,1196510.0,127.0,text,59
32.0,1427.0,1306425.0,140.0,text,59
32.0,1596.0,1353015.0,155.0,text,59
32.0,5291.0,5293.0,0.0,text,60
32.0,509015.0,515325.0,1.0,text,60
81.0,46791.0,563131.0,2.0,text,60
32.0,3846.0,582817.0,4.0,text,60
32.0,3193.0,639271.0,14.0,text,60
32.0,777.0,641058.0,15.0,text,60
32.0,870.0,704255.0,29.0,text,60
32.0,1140.0,768971.0,43.0,text,60
32.0,420.0,833210.0,57.0,text,60
32.0,1179.0,898167.0,71.0,text,60
32.0,350.0,963480.0,85.0,text,60
32.0,860.0,1033279.0,99.0,text,60
32.0,539.0,1105107.0,113.0,text,60
32.0,610.0,1183969.0,127.0,text,60
32.0,2028.0,1263256.0,140.0,text,60
32.0,1024.0,1316028.0,155.0,text,60
32.0,3607.0,3615.0,0.0,text,61
32.0,10400.0,15026.0,1.0,text,61
81.0,29213.0,45254.0,2.0,text,61
81.0,8280.0,87056.0,4.0,text,61
32.0,5110.0,107605.0,6.0,text,61
32.0,77025.0,269623.0,16.0,text,61
32.0,1868.0,272495.0,17.0,text,61
32.0,630.0,346168.0,31.0,text,61
32.0,759.0,415077.0,45.0,text,61
32.0,2432.0,493668.0,59.0,text,61
32.0,772.0,564672.0,73.0,text,61
32.0,2942.0,647040.0,87.0,text,61
32.0,630.0,737709.0,101.0,text,61
32.0,930.0,840417.0,115.0,text,61
32.0,605.0,929640.0,129.0,text,61
32.0,8534.0,1031505.0,142.0,text,61
32.0,2012.0,1091227.0,157.0,text,61
32.0,3183.0,3186.0,0.0,text,62
32.0,19473.0,23666.0,1.0,text,62
81.0,35408.0,60082.0,2.0,text,62
32.0,2105.0,80762.0,4.0,text,62
32.0,14522.0,156073.0,14.0,text,62
32.0,1013.0,158089.0,15.0,text,62
32.0,2391.0,204979.0,29.0,text,62
32.0,6564.0,252524.0,43.0,text,62
32.0,8921.0,300840.0,57.0,text,62
32.0,860.0,337872.0,71.0,text,62
32.0,227.0,369792.0,85.0,text,62
32.0,9849.0,412344.0,99.0,text,62
32.0,1417.0,451031.0,113.0,text,62
32.0,1357.0,485002.0,127.0,text,62
32.0,2481.0,515128.0,140.0,text,62
32.0,210.0,548215.0,155.0,text,62
32.0,10669.0,10674.0,0.0,text,63
32.0,1994.0,13679.0,1.0,text,63
81.0,19341.0,34026.0,2.0,text,63
81.0,20920.0,80559.0,4.0,text,63
32.0,1470.0,91567.0,6.0,text,63
32.0,10067.0,174045.0,16.0,text,63
32.0,2598.0,177658.0,17.0,text,63
32.0,1619.0,234000.0,31.0,text,63
32.0,55.0,278336.0,45.0,text,63
32.0,1323.0,319358.0,59.0,text,63
32.0,1260.0,367332.0,73.0,text,63
32.0,1910.0,409988.0,87.0,text,63
32.0,605.0,456218.0,101.0,text,63
32.0,1395.0,498561.0,115.0,text,63
32.0,1955.0,546631.0,129.0,text,63
32.0,2283.0,591182.0,142.0,text,63
32.0,2253.0,638276.0,157.0,text,63
32.0,976.0,982.0,0.0,text,64
32.0,5235.0,7236.0,1.0,text,64
81.0,8211.0,16453.0,2.0,text,64
81.0,7913.0,40332.0,4.0,text,64
32.0,1414.0,55597.0,6.0,text,64
32.0,3418.0,108316.0,16.0,text,64
32.0,981.0,110309.0,17.0,text,64
32.0,9446.0,152373.0,31.0,text,64
32.0,778.0,183533.0,45.0,text,64
32.0,828.0,218006.0,59.0,text,64
32.0,16001.0,264445.0,73.0,text,64
32.0,781.0,301333.0,87.0,text,64
32.0,760.0,333420.0,101.0,text,64
32.0,236.0,372957.0,115.0,text,64
32.0,289.0,405549.0,129.0,text,64
32.0,12963.0,448709.0,142.0,text,64
32.0,889.0,490484.0,157.0,text,64
32.0,11295.0,11301.0,0.0,text,65
32.0,22879.0,35191.0,1.0,text,65
81.0,130520.0,166712.0,2.0,text,65
32.0,5823.0,214503.0,4.0,text,65
32.0,8291.0,324852.0,14.0,text,65
32.0,1654.0,327507.0,15.0,text,65
32.0,2256.0,431237.0,29.0,text,65
32.0,1994.0,539805.0,43.0,text,65
32.0,1713.0,655697.0,57.0,text,65
32.0,2983.0,767774.0,71.0,text,65
32.0,1588.0,886468.0,85.0,text,65
32.0,1515.0,998625.0,99.0,text,65
32.0,1371.0,1136113.0,113.0,text,65
32.0,2973.0,1301502.0,127.0,text,65
32.0,6786.0,1475398.0,140.0,text,65
32.0,5775.0,1636739.0,155.0,text,65
32.0,4477.0,4481.0,0.0,text,66
32.0,43018.0,48506.0,1.0,text,66
81.0,39299.0,88821.0,2.0,text,66
32.0,4523.0,129948.0,4.0,text,66
32.0,189822.0,406692.0,14.0,text,66
32.0,2099.0,409812.0,15.0,text,66
32.0,7971.0,535459.0,29.0,text,66
32.0,6593.0,616599.0,43.0,text,66
32.0,6328.0,688566.0,57.0,text,66
32.0,4169.0,769017.0,71.0,text,66
32.0,2324.0,854342.0,85.0,text,66
32.0,3121.0,925140.0,99.0,text,66
32.0,3171.0,1043420.0,113.0,text,66
32.0,2808.0,1112618.0,127.0,text,66
32.0,2797.0,1180415.0,140.0,text,66
32.0,2993.0,1258600.0,155.0,text,66
32.0,1330.0,1335.0,0.0,text,67
32.0,10008.0,12360.0,1.0,text,67
81.0,19470.0,32849.0,2.0,text,67
32.0,3136.0,53780.0,4.0,text,67
32.0,3729.0,105800.0,14.0,text,67
32.0,873.0,107691.0,15.0,text,67
32.0,2645.0,172903.0,29.0,text,67
32.0,1510.0,246386.0,43.0,text,67
32.0,735.0,316933.0,57.0,text,67
32.0,1249.0,384591.0,71.0,text,67
32.0,2470.0,464339.0,85.0,text,67
32.0,1131.0,571862.0,99.0,text,67
32.0,1004.0,644783.0,113.0,text,67
32.0,527.0,726338.0,127.0,text,67
32.0,2696.0,811038.0,140.0,text,67
32.0,2788.0,863656.0,155.0,text,67
32.0,22207.0,22220.0,0.0,text,68
32.0,74076.0,97327.0,1.0,text,68
81.0,48648.0,146984.0,2.0,text,68
32.0,96695.0,261803.0,4.0,text,68
32.0,6544.0,324672.0,14.0,text,68
32.0,1105.0,326783.0,15.0,text,68
32.0,3900.0,397622.0,29.0,text,68
32.0,5036.0,477964.0,43.0,text,68
32.0,2120.0,557071.0,57.0,text,68
32.0,1916.0,629561.0,71.0,text,68
32.0,1358.0,704045.0,85.0,text,68
32.0,2402.0,781667.0,99.0,text,68
32.0,913.0,860856.0,113.0,text,68
32.0,6315.0,949053.0,127.0,text,68
32.0,6862.0,1042177.0,140.0,text,68
32.0,5935.0,1102744.0,155.0,text,68
32.0,3148.0,3153.0,0.0,text,69
32.0,23754.0,27925.0,1.0,text,69
81.0,10110.0,39040.0,2.0,text,69
32.0,2330.0,60141.0,4.0,text,69
32.0,7630.0,128759.0,14.0,text,69
32.0,7221.0,136982.0,15.0,text,69
32.0,71759.0,306799.0,29.0,text,69
32.0,1396.0,391525.0,43.0,text,69
32.0,1948.0,479397.0,57.0,text,69
32.0,2650.0,552013.0,71.0,text,69
32.0,1496.0,623806.0,85.0,text,69
32.0,510.0,714927.0,99.0,text,69
32.0,782.0,813948.0,113.0,text,69
32.0,1107.0,905621.0,127.0,text,69
32.0,2083.0,991085.0,140.0,text,69
32.0,762.0,1034583.0,155.0,text,69
32.0,2946.0,2953.0,0.0,text,70
32.0,12485.0,16447.0,1.0,text,70
81.0,19869.0,37326.0,2.0,text,70
32.0,1940.0,49094.0,4.0,text,70
32.0,2589.0,108428.0,14.0,text,70
32.0,668.0,110099.0,15.0,text,70
32.0,1392.0,171970.0,29.0,text,70
32.0,915.0,232815.0,43.0,text,70
32.0,752.0,298820.0,57.0,text,70
32.0,681.0,365358.0,71.0,text,70
32.0,317.0,435876.0,85.0,text,70
32.0,540.0,508726.0,99.0,text,70
32.0,503.0,587237.0,113.0,text,70
32.0,538.0,667381.0,127.0,text,70
32.0,9502.0,757798.0,140.0,text,70
32.0,2229.0,808610.0,155.0,text,70
32.0,1324.0,1328.0,0.0,text,71
32.0,20514.0,22847.0,1.0,text,71
81.0,18370.0,42223.0,2.0,text,71
32.0,10433.0,86110.0,4.0,text,71
32.0,3406.0,147887.0,14.0,text,71
32.0,11095.0,159999.0,15.0,text,71
32.0,1020.0,230176.0,29.0,text,71
32.0,2024.0,296943.0,43.0,text,71
32.0,1815.0,364895.0,57.0,text,71
32.0,663.0,433151.0,71.0,text,71
32.0,969.0,507743.0,85.0,text,71
32.0,809.0,585936.0,99.0,text,71
32.0,737.0,672047.0,113.0,text,71
32.0,640.0,763792.0,127.0,text,71
32.0,2225.0,850656.0,140.0,text,71
32.0,1628.0,904320.0,155.0,text,71
32.0,5977.0,5985.0,0.0,text,72
32.0,15425.0,22415.0,1.0,text,72
81.0,66686.0,90108.0,2.0,text,72
81.0,3094.0,117577.0,4.0,text,72
32.0,3354.0,129297.0,6.0,text,72
32.0,4591.0,187663.0,16.0,text,72
32.0,2101.0,190766.0,17.0,text,72
32.0,15626.0,274403.0,31.0,text,72
32.0,3285.0,344112.0,45.0,text,72
32.0,1885.0,414939.0,59.0,text,72
32.0,23163.0,506271.0,73.0,text,72
32.0,1570.0,575285.0,87.0,text,72
32.0,11835.0,658958.0,101.0,text,72
32.0,1001.0,737058.0,115.0,text,72
32.0,2661.0,819630.0,129.0,text,72
32.0,3913.0,904042.0,142.0,text,72
32.0,2947.0,963839.0,157.0,text,72
32.0,31979.0,31988.0,0.0,text,73
32.0,7482.0,40498.0,1.0,text,73
81.0,36534.0,78040.0,2.0,text,73
81.0,37210.0,156057.0,4.0,text,73
81.0,8426.0,194880.0,6.0,text,73
32.0,2884.0,202191.0,8.0,text,73
32.0,24704.0,370772.0,18.0,text,73
32.0,4048.0,375840.0,19.0,text,73
32.0,8657.0,505408.0,33.0,text,73
32.0,4411.0,597512.0,47.0,text,73
32.0,3277.0,699751.0,61.0,text,73
32.0,1761.0,771840.0,75.0,text,73
32.0,6812.0,852720.0,89.0,text,73
32.0,2917.0,948961.0,103.0,text,73
32.0,5603.0,1041137.0,117.0,text,73
32.0,2392.0,1118143.0,131.0,text,73
32.0,3579.0,1210449.0,144.0,text,73
32.0,4429.0,1300738.0,159.0,text,73
32.0,48209.0,48211.0,0.0,text,74
32.0,47035.0,96281.0,1.0,text,74
81.0,58011.0,155295.0,2.0,text,74
81.0,3282.0,290730.0,4.0,text,74
32.0,3143.0,301695.0,6.0,text,74
32.0,12146.0,462394.0,16.0,text,74
32.0,3147.0,466543.0,17.0,text,74
32.0,4860.0,581897.0,31.0,text,74
32.0,2506.0,683444.0,45.0,text,74
32.0,8628.0,777486.0,59.0,text,74
32.0,887.0,881025.0,73.0,text,74
32.0,2107.0,988410.0,87.0,text,74
32.0,2907.0,1086846.0,101.0,text,74
32.0,7663.0,1179153.0,115.0,text,74
32.0,780.0,1276202.0,129.0,text,74
32.0,9980.0,1371991.0,142.0,text,74
32.0,4786.0,1458378.0,157.0,text,74
32.0,3697.0,3702.0,0.0,text,75
32.0,25268.0,29979.0,1.0,text,75
81.0,42438.0,73425.0,2.0,text,75
81.0,55295.0,162307.0,4.0,text,75
81.0,2278.0,193979.0,6.0,text,75
32.0,7855.0,207174.0,8.0,text,75
32.0,8914.0,292634.0,18.0,text,75
32.0,1801.0,295438.0,19.0,text,75
32.0,200.0,382294.0,33.0,text,75
32.0,749.0,482348.0,47.0,text,75
32.0,3639.0,584204.0,61.0,text,75
32.0,1780.0,688384.0,75.0,text,75
32.0,1775.0,780846.0,89.0,text,75
32.0,1288.0,869304.0,103.0,text,75
32.0,1845.0,963796.0,117.0,text,75
32.0,2566.0,1063908.0,131.0,text,75
32.0,2058.0,1160073.0,144.0,text,75
32.0,7223.0,1224561.0,159.0,text,75
32.0,1558.0,1563.0,0.0,text,76
32.0,44418.0,46987.0,1.0,text,76
81.0,32602.0,80594.0,2.0,text,76
81.0,66435.0,175941.0,4.0,text,76
81.0,2015.0,196139.0,6.0,text,76
81.0,26431.0,234259.0,8.0,text,76
32.0,3267.0,247369.0,10.0,text,76
32.0,5599.0,354802.0,20.0,text,76
32.0,5234.0,361038.0,21.0,text,76
32.0,2479.0,429784.0,35.0,text,76
32.0,942.0,491287.0,49.0,text,76
32.0,559.0,553363.0,63.0,text,76
32.0,107337.0,107343.0,0.0,text,77
32.0,12229.0,120585.0,1.0,text,77
81.0,38323.0,159915.0,2.0,text,77
32.0,1674.0,175664.0,4.0,text,77
32.0,6931.0,230490.0,14.0,text,77
32.0,882.0,232378.0,15.0,text,77
32.0,20621.0,303996.0,29.0,text,77
32.0,1326.0,343814.0,43.0,text,77
32.0,1899.0,385357.0,57.0,text,77
32.0,2217.0,430157.0,71.0,text,77
32.0,1988.0,469687.0,85.0,text,77
32.0,33397.0,545140.0,99.0,text,77
32.0,875.0,588174.0,113.0,text,77
32.0,966.0,634829.0,127.0,text,77
32.0,852.0,678333.0,140.0,text,77
32.0,1004.0,731063.0,155.0,text,77
32.0,3602.0,3606.0,0.0,text,78
32.0,9842.0,14453.0,1.0,text,78
81.0,37241.0,52701.0,2.0,text,78
32.0,3175.0,75092.0,4.0,text,78
32.0,4248.0,4252.0,0.0,text,79
32.0,9606.0,14868.0,1.0,text,79
81.0,22905.0,38791.0,2.0,text,79
81.0,10508.0,66270.0,4.0,text,79
32.0,4514.0,78372.0,6.0,text,79
32.0,10084.0,160770.0,16.0,text,79
32.0,1911.0,163690.0,17.0,text,79
32.0,1149.0,224767.0,31.0,text,79
32.0,5108.0,282143.0,45.0,text,79
32.0,1357.0,347396.0,59.0,text,79
32.0,1013.0,398315.0,73.0,text,79
32.0,1515.0,459535.0,87.0,text,79
32.0,1950.0,526344.0,101.0,text,79
32.0,1116.0,578276.0,115.0,text,79
32.0,679.0,630555.0,129.0,text,79
32.0,1159.0,677045.0,142.0,text,79
32.0,1253.0,732180.0,157.0,text,79
32.0,38343.0,38351.0,0.0,text,80
32.0,10711.0,50083.0,1.0,text,80
81.0,59526.0,110615.0,2.0,text,80
32.0,3848.0,179022.0,4.0,text,80
32.0,4429.0,233950.0,14.0,text,80
32.0,1573.0,236527.0,15.0,text,80
32.0,171.0,296559.0,29.0,text,80
32.0,1301.0,370648.0,43.0,text,80
32.0,710.0,450959.0,57.0,text,80
32.0,868.0,520417.0,71.0,text,80
32.0,3131.0,598361.0,85.0,text,80
32.0,986.0,696574.0,99.0,text,80
32.0,2604.0,798649.0,113.0,text,80
32.0,829.0,898298.0,127.0,text,80
32.0,3409.0,982780.0,140.0,text,80
32.0,1724.0,1050173.0,155.0,text,80
32.0,3341.0,3347.0,0.0,text,81
32.0,4574.0,8935.0,1.0,text,81
81.0,26889.0,36842.0,2.0,text,81
32.0,2277.0,58330.0,4.0,text,81
32.0,77431.0,191579.0,14.0,text,81
32.0,2380.0,194971.0,15.0,text,81
32.0,104336.0,342580.0,29.0,text,81
32.0,1048.0,391616.0,43.0,text,81
32.0,1847.0,444171.0,57.0,text,81
32.0,942.0,515702.0,71.0,text,81
32.0,772.0,562699.0,85.0,text,81
32.0,1140.0,599418.0,99.0,text,81
32.0,1326.0,640754.0,113.0,text,81
32.0,549.0,713042.0,127.0,text,81
32.0,217.0,833995.0,140.0,text,81
32.0,852.0,920056.0,155.0,text,81
32.0,4166.0,4169.0,0.0,text,82
32.0,24124.0,29312.0,1.0,text,82
81.0,22247.0,52575.0,2.0,text,82
32.0,2073.0,73229.0,4.0,text,82
32.0,10820.0,141235.0,14.0,text,82
32.0,1189.0,143427.0,15.0,text,82
32.0,3122.0,193106.0,29.0,text,82
32.0,1340.0,241480.0,43.0,text,82
32.0,2289.0,282640.0,57.0,text,82
32.0,819.0,318455.0,71.0,text,82
32.0,730.0,354766.0,85.0,text,82
32.0,805.0,391117.0,99.0,text,82
32.0,685.0,424764.0,113.0,text,82
32.0,812.0,459435.0,127.0,text,82
32.0,3522.0,496131.0,140.0,text,82
32.0,949.0,537250.0,155.0,text,82
32.0,4478.0,4483.0,0.0,text,83
32.0,30637.0,36167.0,1.0,text,83
81.0,61150.0,98343.0,2.0,text,83
32.0,4667.0,153346.0,4.0,text,83
32.0,6485.0,216171.0,14.0,text,83
32.0,1249.0,218442.0,15.0,text,83
32.0,2367.0,281427.0,29.0,text,83
32.0,3224.0,343251.0,43.0,text,83
32.0,1644.0,405090.0,57.0,text,83
32.0,1000.0,470498.0,71.0,text,83
32.0,765.0,536192.0,85.0,text,83
32.0,658.0,605055.0,99.0,text,83
32.0,638.0,677262.0,113.0,text,83
32.0,695.0,748696.0,127.0,text,83
32.0,4682.0,823826.0,140.0,text,83
32.0,2151.0,872088.0,155.0,text,83
32.0,39214.0,39218.0,0.0,text,84
32.0,6538.0,46775.0,1.0,text,84
81.0,22711.0,70495.0,2.0,text,84
32.0,2212.0,81339.0,4.0,text,84
32.0,1694.0,131054.0,14.0,text,84
32.0,798.0,132853.0,15.0,text,84
32.0,783.0,196266.0,29.0,text,84
32.0,2274.0,259186.0,43.0,text,84
32.0,1198.0,323338.0,57.0,text,84
32.0,1177.0,386532.0,71.0,text,84
32.0,1536.0,455823.0,85.0,text,84
32.0,690.0,527512.0,99.0,text,84
32.0,708.0,601235.0,113.0,text,84
32.0,1439.0,683151.0,127.0,text,84
32.0,807.0,760399.0,140.0,text,84
32.0,2133.0,805961.0,155.0,text,84
32.0,4420.0,4425.0,0.0,text,85
32.0,65137.0,70573.0,1.0,text,85
81.0,51194.0,122778.0,2.0,text,85
32.0,5726.0,158253.0,4.0,text,85
32.0,5020.0,224898.0,14.0,text,85
32.0,1368.0,227273.0,15.0,text,85
32.0,2562.0,279693.0,29.0,text,85
32.0,1636.0,326557.0,43.0,text,85
32.0,2066.0,371672.0,57.0,text,85
32.0,1512.0,417964.0,71.0,text,85
32.0,1366.0,466949.0,85.0,text,85
32.0,1599.0,512202.0,99.0,text,85
32.0,1747.0,561750.0,113.0,text,85
32.0,4126.0,617931.0,127.0,text,85
32.0,1296.0,663400.0,140.0,text,85
32.0,1334.0,721155.0,155.0,text,85
32.0,6500.0,6511.0,0.0,text,86
32.0,9613.0,17166.0,1.0,text,86
81.0,39114.0,57294.0,2.0,text,86
32.0,1770.0,78108.0,4.0,text,86
32.0,3789.0,141196.0,14.0,text,86
32.0,983.0,143193.0,15.0,text,86
32.0,2294.0,223582.0,29.0,text,86
32.0,1432.0,299993.0,43.0,text,86
32.0,1047.0,379710.0,57.0,text,86
32.0,1089.0,473542.0,71.0,text,86
32.0,958.0,568649.0,85.0,text,86
32.0,972.0,656946.0,99.0,text,86
32.0,667.0,756046.0,113.0,text,86
32.0,3213.0,860038.0,127.0,text,86
32.0,5820.0,981362.0,140.0,text,86
32.0,2020.0,1057442.0,155.0,text,86
32.0,3563.0,3578.0,0.0,text,87
32.0,8573.0,13163.0,1.0,text,87
81.0,4336.0,18515.0,2.0,text,87
32.0,2063.0,26074.0,4.0,text,87
32.0,993.0,81559.0,14.0,text,87
32.0,1520.0,84090.0,15.0,text,87
32.0,712.0,167729.0,29.0,text,87
32.0,985.0,252873.0,43.0,text,87
32.0,1541.0,341843.0,57.0,text,87
32.0,1133.0,430279.0,71.0,text,87
32.0,1259.0,524528.0,85.0,text,87
32.0,1118.0,618848.0,99.0,text,87
32.0,669.0,712123.0,113.0,text,87
32.0,1715.0,822841.0,127.0,text,87
32.0,1643.0,921224.0,140.0,text,87
32.0,2131.0,975698.0,155.0,text,87
32.0,5321.0,5326.0,0.0,text,88
32.0,23081.0,29431.0,1.0,text,88
81.0,39461.0,69911.0,2.0,text,88
32.0,24202.0,116181.0,4.0,text,88
32.0,18541.0,214137.0,14.0,text,88
32.0,1740.0,216886.0,15.0,text,88
32.0,3831.0,276957.0,29.0,text,88
32.0,2334.0,335128.0,43.0,text,88
32.0,2731.0,396983.0,57.0,text,88
32.0,2524.0,472277.0,71.0,text,88
32.0,1687.0,535341.0,85.0,text,88
32.0,2475.0,630933.0,99.0,text,88
32.0,2419.0,744324.0,113.0,text,88
32.0,1669.0,834312.0,127.0,text,88
32.0,2738.0,917371.0,140.0,text,88
32.0,3868.0,1018864.0,155.0,text,88
32.0,13495.0,13499.0,0.0,text,89
32.0,7102.0,21610.0,1.0,text,89
81.0,11341.0,33954.0,2.0,text,89
81.0,6381.0,51018.0,4.0,text,89
32.0,1950.0,61747.0,6.0,text,89
32.0,4192.0,118739.0,16.0,text,89
32.0,1138.0,120882.0,17.0,text,89
32.0,587.0,210795.0,31.0,text,89
32.0,1124.0,279146.0,45.0,text,89
32.0,1594.0,347754.0,59.0,text,89
32.0,1298.0,421058.0,73.0,text,89
32.0,973.0,499083.0,87.0,text,89
32.0,136644.0,715859.0,101.0,text,89
32.0,1164.0,820986.0,115.0,text,89
32.0,4812.0,967026.0,129.0,text,89
32.0,40923.0,1129682.0,142.0,text,89
32.0,696.0,1205866.0,157.0,text,89
32.0,3118.0,3124.0,0.0,text,90
32.0,17104.0,21241.0,1.0,text,90
81.0,45463.0,67713.0,2.0,text,90
32.0,5247.0,105808.0,4.0,text,90
32.0,16811.0,189488.0,14.0,text,90
32.0,2037.0,192533.0,15.0,text,90
32.0,1064.0,241284.0,29.0,text,90
32.0,885.0,284630.0,43.0,text,90
32.0,854.0,334922.0,57.0,text,90
32.0,806.0,376787.0,71.0,text,90
32.0,616.0,419952.0,85.0,text,90
32.0,681.0,472969.0,99.0,text,90
32.0,357.0,545815.0,113.0,text,90
32.0,360.0,625676.0,127.0,text,90
32.0,5288.0,686242.0,140.0,text,90
32.0,3120.0,755034.0,155.0,text,90
32.0,2533.0,2537.0,0.0,text,91
32.0,10106.0,13651.0,1.0,text,91
81.0,20882.0,35544.0,2.0,text,91
32.0,1657.0,54442.0,4.0,text,91
32.0,3989.0,194862.0,14.0,text,91
32.0,1142.0,197006.0,15.0,text,91
32.0,1042.0,259432.0,29.0,text,91
32.0,7364.0,326946.0,43.0,text,91
32.0,2636.0,395413.0,57.0,text,91
32.0,1466.0,463470.0,71.0,text,91
32.0,426.0,630278.0,85.0,text,91
32.0,905.0,706129.0,99.0,text,91
32.0,320.0,804613.0,113.0,text,91
32.0,379.0,993969.0,127.0,text,91
32.0,2701.0,1108534.0,140.0,text,91
32.0,2520.0,1160337.0,155.0,text,91
32.0,3560.0,3566.0,0.0,text,92
32.0,7739.0,12317.0,1.0,text,92
81.0,16789.0,30128.0,2.0,text,92
32.0,1290.0,41641.0,4.0,text,92
32.0,3393.0,99453.0,14.0,text,92
32.0,998.0,101474.0,15.0,text,92
32.0,8293.0,1490386.0,29.0,text,92
32.0,13961.0,1571415.0,43.0,text,92
32.0,3592.0,1643841.0,57.0,text,92
32.0,881.0,1718323.0,71.0,text,92
32.0,454.0,1794442.0,85.0,text,92
32.0,743.0,1867820.0,99.0,text,92
32.0,561.0,1945560.0,113.0,text,92
32.0,890.0,2034686.0,127.0,text,92
32.0,3846.0,2121236.0,140.0,text,92
32.0,1130.0,2178923.0,155.0,text,92
32.0,10401.0,10406.0,0.0,text,93
32.0,26634.0,38047.0,1.0,text,93
81.0,72718.0,111781.0,2.0,text,93
32.0,5395.0,152741.0,4.0,text,93
32.0,8906.0,265375.0,14.0,text,93
32.0,2212.0,268588.0,15.0,text,93
32.0,5615.0,5634.0,0.0,text,94
32.0,31869.0,38550.0,1.0,text,94
81.0,39000.0,78586.0,2.0,text,94
32.0,4337.0,100520.0,4.0,text,94
32.0,8801.0,185354.0,14.0,text,94
32.0,2359.0,188744.0,15.0,text,94
32.0,4798.0,255664.0,29.0,text,94
32.0,3053.0,310328.0,43.0,text,94
32.0,1817.0,358897.0,57.0,text,94
32.0,2120.0,411723.0,71.0,text,94
32.0,2341.0,465519.0,85.0,text,94
32.0,1654.0,512315.0,99.0,text,94
32.0,1746.0,554876.0,113.0,text,94
32.0,1142.0,596885.0,127.0,text,94
32.0,1922.0,635390.0,140.0,text,94
32.0,1970.0,700122.0,155.0,text,94
32.0,3688.0,3692.0,0.0,text,95
32.0,12416.0,17127.0,1.0,text,95
81.0,49716.0,67860.0,2.0,text,95
32.0,5916.0,102134.0,4.0,text,95
32.0,7438.0,205338.0,14.0,text,95
32.0,1519.0,207878.0,15.0,text,95
32.0,6005.0,352493.0,29.0,text,95
32.0,4053.0,467790.0,43.0,text,95
32.0,5404.0,674142.0,57.0,text,95
32.0,5336.0,802045.0,71.0,text,95
32.0,8984.0,935345.0,85.0,text,95
32.0,4697.0,1069184.0,99.0,text,95
32.0,3311.0,1210115.0,113.0,text,95
32.0,3679.0,1348337.0,127.0,text,95
32.0,14315.0,1510707.0,140.0,text,95
32.0,2417.0,1651303.0,155.0,text,95
32.0,2130.0,2135.0,0.0,text,96
32.0,10062.0,13217.0,1.0,text,96
81.0,24075.0,38299.0,2.0,text,96
32.0,2546.0,59059.0,4.0,text,96
32.0,9241.0,122484.0,14.0,text,96
32.0,1017.0,124515.0,15.0,text,96
32.0,1723.0,183026.0,29.0,text,96
32.0,960.0,229659.0,43.0,text,96
32.0,932.0,273355.0,57.0,text,96
32.0,826.0,325723.0,71.0,text,96
32.0,258.0,373002.0,85.0,text,96
32.0,1052.0,410466.0,99.0,text,96
32.0,953.0,456836.0,113.0,text,96
32.0,896.0,494505.0,127.0,text,96
32.0,829.0,546411.0,140.0,text,96
32.0,833.0,601019.0,155.0,text,96
32.0,3005.0,3009.0,0.0,text,97
32.0,13317.0,17336.0,1.0,text,97
81.0,32841.0,51183.0,2.0,text,97
32.0,2564.0,75134.0,4.0,text,97
32.0,4919.0,159533.0,14.0,text,97
32.0,972.0,161508.0,15.0,text,97
32.0,1604.0,242855.0,29.0,text,97
32.0,952.0,317139.0,43.0,text,97
32.0,1109.0,401407.0,57.0,text,97
32.0,720.0,474458.0,71.0,text,97
32.0,1194.0,583995.0,85.0,text,97
32.0,1188.0,669476.0,99.0,text,97
32.0,1014.0,850669.0,113.0,text,97
32.0,1831.0,946476.0,127.0,text,97
32.0,1082.0,1051631.0,140.0,text,97
32.0,5102.0,1112566.0,155.0,text,97
32.0,5875.0,5878.0,0.0,text,98
32.0,21265.0,28153.0,1.0,text,98
81.0,82709.0,111872.0,2.0,text,98
32.0,4739.0,141936.0,4.0,text,98
32.0,7321.0,272187.0,14.0,text,98
32.0,2220.0,275411.0,15.0,text,98
32.0,3837.0,394985.0,29.0,text,98
32.0,2643.0,488948.0,43.0,text,98
32.0,815.0,586456.0,57.0,text,98
32.0,4164.0,689822.0,71.0,text,98
32.0,8.0,790747.0,85.0,text,98
32.0,1959.0,895241.0,99.0,text,98
32.0,1179.0,1008135.0,113.0,text,98
32.0,2814.0,1130718.0,127.0,text,98
32.0,2842.0,1251845.0,140.0,text,98
32.0,4781.0,1341359.0,155.0,text,98
32.0,4966.0,4985.0,0.0,text,99
32.0,2804.0,8807.0,1.0,text,99
81.0,19274.0,29087.0,2.0,text,99
81.0,829.0,47054.0,4.0,text,99
32.0,1816.0,60487.0,6.0,text,99
32.0,5158.0,109140.0,16.0,text,99
32.0,656.0,110807.0,17.0,text,99
32.0,4194.0,151980.0,31.0,text,99
32.0,1391.0,189981.0,45.0,text,99
32.0,477.0,230759.0,59.0,text,99
32.0,514.0,265624.0,73.0,text,99
32.0,927.0,313388.0,87.0,text,99
32.0,538.0,345723.0,101.0,text,99
32.0,670.0,380980.0,115.0,text,99
32.0,685.0,412243.0,129.0,text,99
32.0,1256.0,440756.0,142.0,text,99
32.0,1416.0,475524.0,157.0,text,99
32.0,15784.0,15791.0,0.0,text,100
32.0,15778.0,32586.0,1.0,text,100
81.0,57458.0,91052.0,2.0,text,100
81.0,6372.0,130147.0,4.0,text,100
32.0,1676.0,140128.0,6.0,text,100
32.0,9255.0,207364.0,16.0,text,100
32.0,995.0,209372.0,17.0,text,100
32.0,1836.0,254993.0,31.0,text,100
32.0,9132.0,309154.0,45.0,text,100
32.0,2212.0,352928.0,59.0,text,100
32.0,1411.0,398616.0,73.0,text,100
32.0,5901.0,446959.0,87.0,text,100
32.0,1209.0,488295.0,101.0,text,100
32.0,1139.0,527724.0,115.0,text,100
32.0,968.0,569987.0,129.0,text,100
32.0,1217.0,610509.0,142.0,text,100
32.0,2838.0,658770.0,157.0,text,100
32.0,2546.0,2551.0,0.0,text,101
32.0,38415.0,41976.0,1.0,text,101
81.0,26932.0,69926.0,2.0,text,101
32.0,2281.0,95272.0,4.0,text,101
32.0,3885.0,166920.0,14.0,text,101
32.0,984.0,168919.0,15.0,text,101
32.0,40515.0,289447.0,29.0,text,101
32.0,6005.0,376582.0,43.0,text,101
32.0,1222.0,463448.0,57.0,text,101
32.0,1890.0,567448.0,71.0,text,101
32.0,36422.0,699718.0,85.0,text,101
32.0,1302.0,802215.0,99.0,text,101
32.0,998.0,916151.0,113.0,text,101
32.0,1272.0,1040470.0,127.0,text,101
32.0,2915.0,1157128.0,140.0,text,101
32.0,2289.0,1241399.0,155.0,text,101
32.0,5369.0,5381.0,0.0,text,102
32.0,5923.0,12322.0,1.0,text,102
81.0,17414.0,30742.0,2.0,text,102
81.0,5831.0,54093.0,4.0,text,102
32.0,1551.0,61598.0,6.0,text,102
32.0,1959.0,112026.0,16.0,text,102
32.0,781.0,113813.0,17.0,text,102
32.0,907.0,177581.0,31.0,text,102
32.0,795.0,262840.0,45.0,text,102
32.0,159.0,318545.0,59.0,text,102
32.0,16.0,375654.0,73.0,text,102
32.0,34.0,435204.0,87.0,text,102
32.0,1205.0,518230.0,101.0,text,102
32.0,1844.0,587814.0,115.0,text,102
32.0,1838.0,670034.0,129.0,text,102
32.0,697.0,740906.0,142.0,text,102
32.0,1154.0,776849.0,157.0,text,102
32.0,3364.0,3367.0,0.0,text,103
32.0,14616.0,18988.0,1.0,text,103
81.0,24227.0,44223.0,2.0,text,103
32.0,4982.0,62638.0,4.0,text,103
32.0,9889.0,146447.0,14.0,text,103
32.0,2327.0,149778.0,15.0,text,103
32.0,5783.0,228637.0,29.0,text,103
32.0,3924.0,293797.0,43.0,text,103
32.0,2120.0,353948.0,57.0,text,103
32.0,1130.0,411590.0,71.0,text,103
32.0,1967.0,462978.0,85.0,text,103
32.0,1335.0,514036.0,99.0,text,103
32.0,975.0,558291.0,113.0,text,103
32.0,1015.0,607242.0,127.0,text,103
32.0,1567.0,653576.0,140.0,text,103
32.0,1576.0,719033.0,155.0,text,103
32.0,12118.0,12122.0,0.0,text,104
32.0,8419.0,21551.0,1.0,text,104
81.0,18070.0,40637.0,2.0,text,104
32.0,2169.0,54749.0,4.0,text,104
32.0,7775.0,114664.0,14.0,text,104
32.0,3613.0,119292.0,15.0,text,104
32.0,1910.0,226135.0,29.0,text,104
32.0,2210.0,266891.0,43.0,text,104
32.0,846.0,307957.0,57.0,text,104
32.0,1002.0,347659.0,71.0,text,104
32.0,1403.0,383910.0,85.0,text,104
32.0,967.0,420374.0,99.0,text,104
32.0,630.0,459488.0,113.0,text,104
32.0,934.0,496581.0,127.0,text,104
32.0,1041.0,535001.0,140.0,text,104
32.0,1082.0,581881.0,155.0,text,104
32.0,20902.0,20923.0,0.0,text,105
32.0,17863.0,39820.0,1.0,text,105
81.0,66848.0,107679.0,2.0,text,105
32.0,11606.0,162283.0,4.0,text,105
32.0,6081.0,254937.0,14.0,text,105
32.0,1804.0,257746.0,15.0,text,105
32.0,5451.0,350415.0,29.0,text,105
32.0,1428.0,446858.0,43.0,text,105
32.0,1647.0,532458.0,57.0,text,105
32.0,1830.0,630243.0,71.0,text,105
32.0,1377.0,723887.0,85.0,text,105
32.0,1891.0,827832.0,99.0,text,105
32.0,1397.0,951648.0,113.0,text,105
32.0,874.0,1074012.0,127.0,text,105
32.0,5339.0,1181836.0,140.0,text,105
32.0,3109.0,1270489.0,155.0,text,105
32.0,3257.0,3260.0,0.0,text,106
32.0,8347.0,12612.0,1.0,text,106
81.0,24853.0,38471.0,2.0,text,106
32.0,1190.0,54222.0,4.0,text,106
32.0,52730.0,156522.0,14.0,text,106
32.0,689.0,158214.0,15.0,text,106
32.0,277.0,189600.0,29.0,text,106
32.0,4003.0,228052.0,43.0,text,106
32.0,21619.0,286660.0,57.0,text,106
32.0,1209.0,323078.0,71.0,text,106
32.0,286.0,370769.0,85.0,text,106
32.0,695.0,407867.0,99.0,text,106
32.0,5149.0,448507.0,113.0,text,106
32.0,18062.0,501764.0,127.0,text,106
32.0,1135.0,542130.0,140.0,text,106
32.0,842.0,595109.0,155.0,text,106
32.0,6909.0,6914.0,0.0,text,107
32.0,23562.0,31511.0,1.0,text,107
81.0,45571.0,78112.0,2.0,text,107
32.0,5883.0,130305.0,4.0,text,107
32.0,7267.0,192843.0,14.0,text,107
32.0,1428.0,195283.0,15.0,text,107
32.0,1504.0,246721.0,29.0,text,107
32.0,678.0,287061.0,43.0,text,107
32.0,2322.0,327629.0,57.0,text,107
32.0,3479.0,369548.0,71.0,text,107
32.0,2131.0,407640.0,85.0,text,107
32.0,990.0,442659.0,99.0,text,107
32.0,1597.0,477247.0,113.0,text,107
32.0,1566.0,511887.0,127.0,text,107
32.0,2004.0,546499.0,140.0,text,107
32.0,1442.0,581809.0,155.0,text,107
32.0,2761.0,2766.0,0.0,text,108
32.0,12926.0,16710.0,1.0,text,108
81.0,19973.0,37702.0,2.0,text,108
81.0,8675.0,72815.0,4.0,text,108
32.0,2214.0,97566.0,6.0,text,108
32.0,10812.0,203639.0,16.0,text,108
32.0,1420.0,206069.0,17.0,text,108
32.0,1938.0,276470.0,31.0,text,108
32.0,2119.0,338438.0,45.0,text,108
32.0,732.0,395622.0,59.0,text,108
32.0,1160.0,452151.0,73.0,text,108
32.0,1081.0,499282.0,87.0,text,108
32.0,695.0,541533.0,101.0,text,108
32.0,690.0,587342.0,115.0,text,108
32.0,1121.0,628308.0,129.0,text,108
32.0,3433.0,672288.0,142.0,text,108
32.0,1269.0,718334.0,157.0,text,108
32.0,4531.0,4536.0,0.0,text,109
32.0,52944.0,58506.0,1.0,text,109
81.0,23474.0,83002.0,2.0,text,109
32.0,2592.0,97008.0,4.0,text,109
32.0,5535.0,155309.0,14.0,text,109
32.0,1770.0,158099.0,15.0,text,109
32.0,1973.0,204607.0,29.0,text,109
32.0,1767.0,253141.0,43.0,text,109
32.0,1139.0,303062.0,57.0,text,109
32.0,1515.0,352212.0,71.0,text,109
32.0,1345.0,396838.0,85.0,text,109
32.0,1206.0,442178.0,99.0,text,109
32.0,1392.0,487405.0,113.0,text,109
32.0,1256.0,527692.0,127.0,text,109
32.0,2537.0,572747.0,140.0,text,109
32.0,1984.0,624679.0,155.0,text,109
32.0,7771.0,7803.0,0.0,text,110
32.0,82537.0,91396.0,1.0,text,110
81.0,125160.0,217575.0,2.0,text,110
32.0,8178.0,305465.0,4.0,text,110
32.0,9688.0,407421.0,14.0,text,110
32.0,1709.0,410139.0,15.0,text,110
32.0,19338.0,523220.0,29.0,text,110
32.0,6973.0,629029.0,43.0,text,110
32.0,5770.0,728072.0,57.0,text,110
32.0,2640.0,831145.0,71.0,text,110
32.0,3688.0,955916.0,85.0,text,110
32.0,3476.0,1100463.0,99.0,text,110
32.0,3052.0,1228934.0,113.0,text,110
32.0,3153.0,1368264.0,127.0,text,110
32.0,5617.0,1490704.0,140.0,text,110
32.0,3593.0,1602830.0,155.0,text,110
32.0,3095.0,3100.0,0.0,text,111
32.0,15185.0,19300.0,1.0,text,111
81.0,26582.0,47589.0,2.0,text,111
81.0,15933.0,87477.0,4.0,text,111
32.0,2174.0,105745.0,6.0,text,111
32.0,7892.0,190146.0,16.0,text,111
32.0,1808.0,192969.0,17.0,text,111
32.0,1336.0,279808.0,31.0,text,111
32.0,1056.0,367265.0,45.0,text,111
32.0,623.0,459575.0,59.0,text,111
32.0,1244.0,552822.0,73.0,text,111
32.0,826.0,653007.0,87.0,text,111
32.0,693.0,749231.0,101.0,text,111
32.0,1188.0,858477.0,115.0,text,111
32.0,727.0,967589.0,129.0,text,111
32.0,1529.0,1081762.0,142.0,text,111
32.0,1702.0,1147325.0,157.0,text,111
