block_idx,color_cue,condition,correct,cue_present,draw_trajectory,goes_in,good_cue,hole,kind,layout,num_bounces,response,rt,score,show_feedback,time_elapsed,trial,trial_index,trial_type,trials_completed,wall_cue,pid
0.0,False,13.0,False,True,True,False,True,instruct_1,instruct,300_1.6,2.0,yes,14580.0,0.0,True,153631,1.0,7,ball,1.0,False,0
0.0,False,13.0,False,True,True,False,True,instruct_0,instruct,300_1.6,1.0,yes,2212.0,0.0,True,160526,2.0,8,ball,2.0,False,0
0.0,False,13.0,True,True,True,False,True,instruct_5,instruct,300_1.6,2.0,no,4164.0,1.0,True,168943,3.0,9,ball,3.0,False,0
0.0,False,13.0,True,True,True,False,True,instruct_4,instruct,300_1.6,1.0,no,2165.0,2.0,True,175502,4.0,10,ball,4.0,False,0
0.0,False,13.0,True,True,True,True,True,instruct_7,instruct,0_1.6,2.0,yes,1005.0,3.0,True,180622,5.0,11,ball,5.0,False,0
0.0,False,13.0,False,True,True,True,True,instruct_2,instruct,0_1.6,1.0,no,3710.0,3.0,True,188519,6.0,12,ball,6.0,False,0
0.0,False,13.0,True,True,True,True,True,instruct_3,instruct,0_1.6,2.0,yes,1692.0,4.0,True,194350,7.0,13,ball,7.0,False,0
0.0,False,13.0,True,True,True,True,True,instruct_6,instruct,0_1.6,1.0,yes,1517.0,5.0,True,199958,8.0,14,ball,8.0,False,0
1.0,background,13.0,True,True,True,True,True,easy_6,easy,0_1.4,1.0,yes,7206.0,1.0,True,223806,1.0,18,ball,9.0,False,0
1.0,background,13.0,False,True,True,False,True,easy_0,easy,300_1.4,1.0,yes,2589.0,1.0,True,230430,2.0,19,ball,10.0,False,0
1.0,background,13.0,True,True,True,False,True,easy_5,easy,300_1.4,1.0,no,6029.0,2.0,True,240862,3.0,20,ball,11.0,False,0
1.0,background,13.0,True,False,True,False,True,easy_1,easy,300_1.4,1.0,no,1621.0,3.0,True,246766,4.0,21,ball,12.0,False,0
1.0,background,13.0,False,True,True,True,True,easy_7,easy,0_1.4,1.0,no,4580.0,3.0,True,255167,5.0,22,ball,13.0,False,0
1.0,background,13.0,True,False,True,False,True,easy_9,easy,300_1.4,1.0,no,957.0,4.0,True,260606,6.0,23,ball,14.0,False,0
1.0,background,13.0,True,True,True,True,True,easy_11,easy,0_1.4,1.0,yes,1237.0,5.0,True,265621,7.0,24,ball,15.0,False,0
1.0,background,13.0,False,False,True,False,True,easy_4,easy,300_1.4,1.0,yes,2740.0,5.0,True,272125,8.0,25,ball,16.0,False,0
1.0,background,13.0,True,False,True,True,True,easy_10,easy,0_1.4,1.0,yes,2805.0,6.0,True,278798,9.0,26,ball,17.0,False,0
1.0,background,13.0,True,False,True,True,True,easy_14,easy,0_1.4,1.0,yes,1829.0,7.0,True,286493,10.0,27,ball,18.0,False,0
1.0,background,13.0,False,False,True,False,True,easy_13,easy,300_1.4,1.0,yes,1029.0,7.0,True,294622,11.0,28,ball,19.0,False,0
1.0,background,13.0,True,True,True,True,True,control_4,control,control,0.0,yes,941.0,8.0,True,298450,12.0,29,ball,20.0,False,0
1.0,background,13.0,True,True,True,True,True,easy_2,easy,0_1.4,1.0,yes,931.0,9.0,True,303726,13.0,30,ball,21.0,False,0
2.0,background,13.0,False,True,True,False,True,easy_12,easy,300_1.4,1.0,yes,8702.0,0.0,True,330925,1.0,32,ball,22.0,False,0
2.0,background,13.0,True,True,True,False,True,easy_9,easy,300_1.4,1.0,no,2101.0,1.0,True,337197,2.0,33,ball,23.0,False,0
2.0,background,13.0,True,True,True,True,True,easy_3,easy,0_1.4,1.0,yes,1725.0,2.0,True,343342,3.0,34,ball,24.0,False,0
2.0,background,13.0,True,True,True,False,True,standard_20,standard,200_2.2,1.0,no,1684.0,3.0,True,349877,4.0,35,ball,25.0,False,0
2.0,background,13.0,False,False,True,False,True,easy_8,easy,300_1.4,1.0,yes,2213.0,3.0,True,355812,5.0,36,ball,26.0,False,0
2.0,background,13.0,True,True,True,False,True,control_5,control,control,0.0,no,1325.0,4.0,True,360089,6.0,37,ball,27.0,False,0
2.0,background,13.0,True,False,True,True,True,easy_11,easy,0_1.4,1.0,yes,1868.0,5.0,True,366414,7.0,38,ball,28.0,False,0
2.0,background,13.0,True,True,True,True,True,easy_14,easy,0_1.4,1.0,yes,1053.0,6.0,True,372060,8.0,39,ball,29.0,False,0
2.0,background,13.0,False,False,True,True,True,easy_6,easy,0_1.4,1.0,no,1797.0,6.0,True,377717,9.0,40,ball,30.0,False,0
2.0,background,13.0,True,False,True,False,True,easy_0,easy,300_1.4,1.0,no,2021.0,7.0,True,383494,10.0,41,ball,31.0,False,0
2.0,background,13.0,True,True,True,True,True,standard_14,standard,0_2.2,1.0,yes,1621.0,8.0,True,389716,11.0,42,ball,32.0,False,0
2.0,background,13.0,False,False,True,False,True,standard_8,standard,200_2.2,1.0,yes,2044.0,8.0,True,396365,12.0,43,ball,33.0,False,0
2.0,background,13.0,True,True,True,False,True,easy_4,easy,300_1.4,1.0,no,1077.0,9.0,True,401908,13.0,44,ball,34.0,False,0
3.0,background,13.0,True,False,True,True,True,easy_7,easy,0_1.4,1.0,yes,1445.0,1.0,True,414597,1.0,46,ball,35.0,False,0
3.0,background,13.0,True,False,True,True,True,easy_2,easy,0_1.4,1.0,yes,1317.0,2.0,True,420140,2.0,47,ball,36.0,False,0
3.0,background,13.0,True,True,True,True,True,easy_10,easy,0_1.4,1.0,yes,10893.0,3.0,True,434837,3.0,48,ball,37.0,False,0
3.0,background,13.0,True,False,True,False,True,standard_9,standard,200_2.2,2.0,no,1494.0,4.0,True,441725,4.0,49,ball,38.0,False,0
3.0,background,13.0,True,True,True,False,True,standard_5,standard,200_2.2,2.0,no,1013.0,5.0,True,447292,5.0,50,ball,39.0,False,0
3.0,background,13.0,True,False,True,False,True,easy_5,easy,300_1.4,1.0,no,1237.0,6.0,True,452339,6.0,51,ball,40.0,False,0
3.0,background,13.0,True,True,True,True,True,control_6,control,control,0.0,yes,1013.0,7.0,True,455920,7.0,52,ball,41.0,False,0
3.0,background,13.0,True,False,True,False,True,standard_17,standard,200_2.2,2.0,no,861.0,8.0,True,461467,8.0,53,ball,42.0,False,0
3.0,background,13.0,True,True,True,True,True,standard_6,standard,0_2.2,1.0,yes,4630.0,9.0,True,470596,9.0,54,ball,43.0,False,0
3.0,background,13.0,False,True,True,True,True,standard_7,standard,0_2.2,2.0,no,3164.0,9.0,True,478356,10.0,55,ball,44.0,False,0
3.0,background,13.0,False,True,True,False,True,easy_1,easy,300_1.4,1.0,yes,2294.0,9.0,True,484396,11.0,56,ball,45.0,False,0
3.0,background,13.0,True,True,True,False,True,easy_13,easy,300_1.4,1.0,no,1069.0,10.0,True,489331,12.0,57,ball,46.0,False,0
3.0,background,13.0,True,False,True,False,True,standard_16,standard,200_2.2,1.0,no,773.0,11.0,True,494684,13.0,58,ball,47.0,False,0
4.0,background,13.0,True,True,True,True,True,standard_2,standard,0_2.2,1.0,yes,1276.0,1.0,True,507019,1.0,60,ball,48.0,False,0
4.0,background,13.0,True,True,True,False,True,standard_4,standard,200_2.2,1.0,no,1317.0,2.0,True,515669,2.0,61,ball,49.0,False,0
4.0,background,13.0,True,True,True,False,True,control_7,control,control,0.0,no,836.0,3.0,True,519568,3.0,62,ball,50.0,False,0
4.0,background,13.0,True,False,True,False,True,standard_13,standard,200_2.2,2.0,no,637.0,4.0,True,524877,4.0,63,ball,51.0,False,0
4.0,background,13.0,False,False,True,True,True,standard_23,standard,0_2.2,2.0,no,764.0,4.0,True,530163,5.0,64,ball,52.0,False,0
4.0,background,13.0,True,False,True,True,True,easy_3,easy,0_1.4,1.0,yes,1166.0,5.0,True,535676,6.0,65,ball,53.0,False,0
4.0,background,13.0,True,False,True,True,True,standard_22,standard,0_2.2,1.0,yes,1069.0,6.0,True,541381,7.0,66,ball,54.0,False,0
4.0,background,13.0,False,False,True,True,True,standard_11,standard,0_2.2,2.0,no,1349.0,6.0,True,547307,8.0,67,ball,55.0,False,0
4.0,background,13.0,False,False,True,False,True,easy_12,easy,300_1.4,1.0,yes,2708.0,6.0,True,553844,9.0,68,ball,56.0,False,0
4.0,background,13.0,True,False,True,True,True,standard_18,standard,0_2.2,1.0,yes,1141.0,7.0,True,559652,10.0,69,ball,57.0,False,0
4.0,background,13.0,True,True,True,True,True,standard_15,standard,0_2.2,2.0,yes,1164.0,8.0,True,565323,11.0,70,ball,58.0,False,0
4.0,background,13.0,True,True,True,True,True,standard_10,standard,0_2.2,1.0,yes,908.0,9.0,True,570804,12.0,71,ball,59.0,False,0
4.0,background,13.0,True,True,True,False,True,easy_8,easy,300_1.4,1.0,no,1733.0,10.0,True,576339,13.0,72,ball,60.0,False,0
5.0,background,13.0,False,False,True,True,True,standard_19,standard,0_2.2,2.0,no,1085.0,0.0,True,588036,1.0,74,ball,61.0,False,0
5.0,background,13.0,True,True,True,False,True,standard_17,standard,200_2.2,2.0,no,781.0,1.0,True,593963,2.0,75,ball,62.0,False,0
5.0,background,13.0,True,True,True,False,True,control_1,control,control,0.0,no,908.0,2.0,True,597807,3.0,76,ball,63.0,False,0
5.0,background,13.0,True,False,True,False,True,standard_1,standard,200_2.2,2.0,no,1237.0,3.0,True,603947,4.0,77,ball,64.0,False,0
5.0,background,13.0,False,False,True,True,True,standard_3,standard,0_2.2,2.0,no,1045.0,3.0,True,609643,5.0,78,ball,65.0,False,0
5.0,background,13.0,True,True,True,False,True,standard_21,standard,200_2.2,2.0,no,1229.0,4.0,True,616251,6.0,79,ball,66.0,False,0
5.0,background,13.0,True,False,True,True,True,standard_6,standard,0_2.2,1.0,yes,997.0,5.0,True,621764,7.0,80,ball,67.0,False,0
5.0,background,13.0,True,True,True,False,True,standard_16,standard,200_2.2,1.0,no,1756.0,6.0,True,628188,8.0,81,ball,68.0,False,0
5.0,background,13.0,True,True,True,False,True,standard_12,standard,200_2.2,1.0,no,869.0,7.0,True,633628,9.0,82,ball,69.0,False,0
5.0,background,13.0,True,True,True,False,True,standard_8,standard,200_2.2,1.0,no,4678.0,8.0,True,642875,10.0,83,ball,70.0,False,0
5.0,background,13.0,True,True,True,False,True,standard_0,standard,200_2.2,1.0,no,573.0,9.0,True,647964,11.0,84,ball,71.0,False,0
5.0,background,13.0,True,False,True,True,True,standard_14,standard,0_2.2,1.0,yes,1109.0,10.0,True,654131,12.0,85,ball,72.0,False,0
5.0,background,13.0,True,False,True,False,True,standard_20,standard,200_2.2,1.0,no,1957.0,11.0,True,660540,13.0,86,ball,73.0,False,0
6.0,background,13.0,True,False,True,False,True,standard_5,standard,200_2.2,2.0,no,605.0,1.0,True,671851,1.0,88,ball,74.0,False,0
6.0,background,13.0,True,False,True,False,True,hard_1,hard,100_3.2,2.0,no,604.0,2.0,True,677955,2.0,89,ball,75.0,False,0
6.0,background,13.0,True,True,True,False,True,standard_13,standard,200_2.2,2.0,no,661.0,3.0,True,683091,3.0,90,ball,76.0,False,0
6.0,background,13.0,True,True,True,True,True,standard_22,standard,0_2.2,1.0,yes,949.0,4.0,True,688522,4.0,91,ball,77.0,False,0
6.0,background,13.0,True,True,True,False,True,hard_8,hard,100_3.2,2.0,no,853.0,5.0,True,694923,5.0,92,ball,78.0,False,0
6.0,background,13.0,True,True,True,True,True,standard_23,standard,0_2.2,2.0,yes,1317.0,6.0,True,700738,6.0,93,ball,79.0,False,0
6.0,background,13.0,False,False,True,True,True,standard_15,standard,0_2.2,2.0,no,2173.0,6.0,True,707562,7.0,94,ball,80.0,False,0
6.0,background,13.0,True,True,True,True,True,control_0,control,control,0.0,yes,846.0,7.0,True,711303,8.0,95,ball,81.0,False,0
6.0,background,13.0,False,True,True,True,True,hard_2,hard,0_3.2,2.0,no,893.0,7.0,True,717787,9.0,96,ball,82.0,False,0
6.0,background,13.0,True,True,True,False,True,standard_9,standard,200_2.2,2.0,no,548.0,8.0,True,723026,10.0,97,ball,83.0,False,0
6.0,background,13.0,False,False,True,True,True,standard_7,standard,0_2.2,2.0,no,765.0,8.0,True,728843,11.0,98,ball,84.0,False,0
6.0,background,13.0,True,False,True,False,True,standard_4,standard,200_2.2,1.0,no,653.0,9.0,True,734075,12.0,99,ball,85.0,False,0
6.0,background,13.0,True,True,True,True,True,standard_18,standard,0_2.2,1.0,yes,1485.0,10.0,True,740795,13.0,100,ball,86.0,False,0
7.0,background,13.0,False,False,True,True,True,hard_6,hard,0_3.2,2.0,no,1061.0,0.0,True,753842,1.0,102,ball,87.0,False,0
7.0,background,13.0,True,False,True,False,True,hard_0,hard,100_3.2,2.0,no,845.0,1.0,True,760307,2.0,103,ball,88.0,False,0
7.0,background,13.0,False,True,True,True,True,hard_3,hard,0_3.2,2.0,no,997.0,1.0,True,766762,3.0,104,ball,89.0,False,0
7.0,background,13.0,True,True,True,True,True,standard_3,standard,0_2.2,2.0,yes,1212.0,2.0,True,772953,4.0,105,ball,90.0,False,0
7.0,background,13.0,True,False,True,True,True,standard_2,standard,0_2.2,1.0,yes,2093.0,3.0,True,780506,5.0,106,ball,91.0,False,0
7.0,background,13.0,True,True,True,False,True,standard_1,standard,200_2.2,2.0,no,1220.0,4.0,True,786450,6.0,107,ball,92.0,False,0
7.0,background,13.0,True,True,True,False,True,control_3,control,control,0.0,no,621.0,5.0,True,790062,7.0,108,ball,93.0,False,0
7.0,background,13.0,True,True,True,False,True,hard_9,hard,100_3.2,2.0,no,413.0,6.0,True,796059,8.0,109,ball,94.0,False,0
7.0,background,13.0,True,True,True,True,True,standard_11,standard,0_2.2,2.0,yes,557.0,7.0,True,801314,9.0,110,ball,95.0,False,0
7.0,background,13.0,True,False,True,True,True,standard_10,standard,0_2.2,1.0,yes,661.0,8.0,True,806850,10.0,111,ball,96.0,False,0
7.0,background,13.0,True,True,True,False,True,hard_4,hard,100_3.2,2.0,no,445.0,9.0,True,812986,11.0,112,ball,97.0,False,0
7.0,background,13.0,False,False,True,False,True,standard_12,standard,200_2.2,1.0,yes,860.0,9.0,True,818475,12.0,113,ball,98.0,False,0
7.0,background,13.0,True,False,True,False,True,hard_12,hard,100_3.2,2.0,no,757.0,10.0,True,824651,13.0,114,ball,99.0,False,0
8.0,background,13.0,False,False,True,True,True,hard_10,hard,0_3.2,2.0,no,3966.0,0.0,True,839553,1.0,116,ball,100.0,False,0
8.0,background,13.0,True,True,True,False,True,hard_13,hard,100_3.2,2.0,no,3652.0,1.0,True,848954,2.0,117,ball,101.0,False,0
8.0,background,13.0,True,False,True,True,True,hard_14,hard,0_3.2,2.0,yes,925.0,2.0,True,855490,3.0,118,ball,102.0,False,0
8.0,background,13.0,True,True,True,True,True,standard_19,standard,0_2.2,2.0,yes,1020.0,3.0,True,861185,4.0,119,ball,103.0,False,0
8.0,background,13.0,True,False,True,True,True,hard_2,hard,0_3.2,2.0,yes,1525.0,4.0,True,868258,5.0,120,ball,104.0,False,0
8.0,background,13.0,True,False,True,True,True,hard_11,hard,0_3.2,2.0,yes,869.0,5.0,True,875090,6.0,121,ball,105.0,False,0
8.0,background,13.0,True,True,True,False,True,hard_1,hard,100_3.2,2.0,no,572.0,6.0,True,881241,7.0,122,ball,106.0,False,0
8.0,background,13.0,False,False,True,False,True,hard_8,hard,100_3.2,2.0,yes,1462.0,6.0,True,888258,8.0,123,ball,107.0,False,0
8.0,background,13.0,True,True,True,True,True,control_2,control,control,0.0,yes,2561.0,7.0,True,893293,9.0,124,ball,108.0,False,0
8.0,background,13.0,True,True,True,False,True,hard_5,hard,100_3.2,2.0,no,861.0,8.0,True,900330,10.0,125,ball,109.0,False,0
8.0,background,13.0,False,False,True,False,True,standard_21,standard,200_2.2,2.0,yes,1476.0,8.0,True,943842,11.0,126,ball,110.0,False,0
8.0,background,13.0,True,True,True,True,True,hard_7,hard,0_3.2,2.0,yes,1933.0,9.0,True,951472,12.0,127,ball,111.0,False,0
8.0,background,13.0,False,False,True,False,True,standard_0,standard,200_2.2,1.0,yes,3069.0,9.0,True,959289,13.0,128,ball,112.0,False,0
9.0,background,13.0,True,True,True,False,True,hard_12,hard,100_3.2,2.0,no,1124.0,1.0,True,973305,1.0,130,ball,113.0,False,0
9.0,background,13.0,True,True,True,True,True,hard_14,hard,0_3.2,2.0,yes,813.0,2.0,True,979696,2.0,131,ball,114.0,False,0
9.0,background,13.0,True,False,True,False,True,hard_13,hard,100_3.2,2.0,no,1636.0,3.0,True,986976,3.0,132,ball,115.0,False,0
9.0,background,13.0,True,True,True,True,True,hard_6,hard,0_3.2,2.0,yes,1014.0,4.0,True,993569,4.0,133,ball,116.0,False,0
9.0,background,13.0,False,False,True,True,True,hard_3,hard,0_3.2,2.0,no,877.0,4.0,True,999911,5.0,134,ball,117.0,False,0
9.0,background,13.0,True,False,True,True,True,hard_7,hard,0_3.2,2.0,yes,1108.0,5.0,True,1006544,6.0,135,ball,118.0,False,0
9.0,background,13.0,True,True,True,True,True,hard_10,hard,0_3.2,2.0,yes,1037.0,6.0,True,1013911,7.0,136,ball,119.0,False,0
9.0,background,13.0,False,False,True,False,True,hard_9,hard,100_3.2,2.0,yes,1524.0,6.0,True,1020905,8.0,137,ball,120.0,False,0
9.0,background,13.0,True,False,True,False,True,hard_5,hard,100_3.2,2.0,no,542.0,7.0,True,1028369,9.0,138,ball,121.0,False,0
9.0,background,13.0,True,True,True,False,True,hard_0,hard,100_3.2,2.0,no,764.0,8.0,True,1034704,10.0,139,ball,122.0,False,0
9.0,background,13.0,True,True,True,True,True,hard_11,hard,0_3.2,2.0,yes,637.0,9.0,True,1041408,11.0,140,ball,123.0,False,0
9.0,background,13.0,True,False,True,False,True,hard_4,hard,100_3.2,2.0,no,1196.0,10.0,True,1051591,12.0,141,ball,124.0,False,0
10.0,background,13.0,True,True,True,False,True,critical_2,critical,100_3.2,2.0,no,1173.0,1.0,False,1066748,1.0,143,ball,125.0,False,0
10.0,background,13.0,True,True,True,True,True,critical_3,critical,0_3.2,2.0,yes,2701.0,2.0,False,1071731,2.0,144,ball,126.0,False,0
10.0,background,13.0,True,True,True,False,True,critical_4,critical,100_3.2,2.0,no,468.0,3.0,False,1074115,3.0,145,ball,127.0,False,0
10.0,background,13.0,True,True,True,True,True,critical_5,critical,0_3.2,2.0,yes,823.0,4.0,False,1076876,4.0,146,ball,128.0,False,0
10.0,background,13.0,False,True,True,False,False,critical_6,critical,100_3.2,2.0,yes,429.0,4.0,False,1079196,5.0,147,ball,129.0,False,0
10.0,background,13.0,True,True,True,False,True,filler_5,filler,200_2.2,2.0,no,2333.0,5.0,False,1084004,6.0,148,ball,130.0,False,0
10.0,background,13.0,True,True,True,False,True,filler_1,filler,200_2.2,2.0,no,101.0,6.0,False,1086803,7.0,149,ball,131.0,False,0
10.0,background,13.0,False,True,True,True,False,critical_7,critical,0_3.2,2.0,no,349.0,6.0,False,1089244,8.0,150,ball,132.0,False,0
10.0,background,13.0,True,True,True,True,True,filler_2,filler,0_2.2,1.0,yes,940.0,7.0,False,1092187,9.0,151,ball,133.0,False,0
10.0,background,13.0,True,True,True,True,True,filler_3,filler,0_2.2,2.0,yes,454.0,8.0,False,1094628,10.0,152,ball,134.0,False,0
10.0,background,13.0,False,True,True,False,False,critical_0,critical,100_3.2,2.0,yes,411.0,8.0,False,1096540,11.0,153,ball,135.0,False,0
10.0,background,13.0,True,True,True,False,True,filler_4,filler,200_2.2,1.0,no,317.0,9.0,False,1098652,12.0,154,ball,136.0,False,0
10.0,background,13.0,True,True,True,False,True,filler_0,filler,200_2.2,1.0,no,293.0,10.0,False,1100835,13.0,155,ball,137.0,False,0
10.0,background,13.0,False,True,True,True,False,critical_1,critical,0_3.2,2.0,no,341.0,10.0,False,1103123,14.0,156,ball,138.0,False,0
0.0,False,17.0,True,True,True,True,True,instruct_6,instruct,0_1.6,1.0,yes,10109.0,1.0,True,135996,1.0,7,ball,1.0,False,1
0.0,False,17.0,True,True,True,True,True,instruct_2,instruct,0_1.6,1.0,yes,2270.0,2.0,True,143031,2.0,8,ball,2.0,False,1
0.0,False,17.0,True,True,True,False,True,instruct_5,instruct,300_1.6,2.0,no,2729.0,3.0,True,150350,3.0,9,ball,3.0,False,1
0.0,False,17.0,True,True,True,False,True,instruct_1,instruct,300_1.6,2.0,no,5337.0,4.0,True,160437,4.0,10,ball,4.0,False,1
0.0,False,17.0,True,True,True,True,True,instruct_7,instruct,0_1.6,2.0,yes,4130.0,5.0,True,197930,5.0,11,ball,5.0,False,1
0.0,False,17.0,True,True,True,True,True,instruct_3,instruct,0_1.6,2.0,yes,3445.0,6.0,True,205709,6.0,12,ball,6.0,False,1
0.0,False,17.0,False,True,True,False,True,instruct_4,instruct,300_1.6,1.0,yes,1941.0,6.0,True,211790,7.0,13,ball,7.0,False,1
0.0,False,17.0,True,True,True,False,True,instruct_0,instruct,300_1.6,1.0,no,1908.0,7.0,True,218279,8.0,14,ball,8.0,False,1
1.0,background,17.0,False,False,True,False,True,easy_5,easy,300_1.4,1.0,yes,2404.0,0.0,True,235776,1.0,18,ball,9.0,False,1
1.0,background,17.0,True,False,True,False,True,easy_8,easy,300_1.4,1.0,no,2004.0,1.0,True,242272,2.0,19,ball,10.0,False,1
1.0,background,17.0,False,False,True,False,True,easy_4,easy,300_1.4,1.0,yes,3756.0,1.0,True,251297,3.0,20,ball,11.0,False,1
1.0,background,17.0,False,False,True,True,True,easy_6,easy,0_1.4,1.0,no,3075.0,1.0,True,258674,4.0,21,ball,12.0,False,1
1.0,background,17.0,True,False,True,True,True,easy_10,easy,0_1.4,1.0,yes,5076.0,2.0,True,269405,5.0,22,ball,13.0,False,1
1.0,background,17.0,True,True,True,False,True,control_1,control,control,0.0,no,1954.0,3.0,True,274558,6.0,23,ball,14.0,False,1
1.0,background,17.0,True,True,True,True,True,easy_7,easy,0_1.4,1.0,yes,2920.0,4.0,True,281983,7.0,24,ball,15.0,False,1
1.0,background,17.0,True,False,True,False,True,easy_13,easy,300_1.4,1.0,no,69393.0,5.0,True,357662,8.0,25,ball,16.0,False,1
1.0,background,17.0,False,True,True,False,True,easy_0,easy,300_1.4,1.0,yes,8018.0,5.0,True,369942,9.0,26,ball,17.0,False,1
1.0,background,17.0,True,True,True,True,True,easy_11,easy,0_1.4,1.0,yes,2277.0,6.0,True,376785,10.0,27,ball,18.0,False,1
1.0,background,17.0,True,True,True,True,True,easy_3,easy,0_1.4,1.0,yes,2418.0,7.0,True,383851,11.0,28,ball,19.0,False,1
1.0,background,17.0,True,True,True,True,True,easy_2,easy,0_1.4,1.0,yes,3094.0,8.0,True,391373,12.0,29,ball,20.0,False,1
1.0,background,17.0,False,True,True,False,True,easy_9,easy,300_1.4,1.0,yes,4520.0,8.0,True,407173,13.0,30,ball,21.0,False,1
2.0,background,17.0,True,True,True,False,True,easy_13,easy,300_1.4,1.0,no,8629.0,1.0,True,487885,1.0,32,ball,22.0,False,1
2.0,background,17.0,False,True,True,False,True,easy_1,easy,300_1.4,1.0,yes,7972.0,1.0,True,547766,2.0,33,ball,23.0,False,1
2.0,background,17.0,True,True,True,False,True,standard_20,standard,200_2.2,1.0,no,3365.0,2.0,True,556415,3.0,34,ball,24.0,False,1
2.0,background,17.0,True,True,True,True,True,easy_6,easy,0_1.4,1.0,yes,7428.0,3.0,True,576026,4.0,35,ball,25.0,False,1
2.0,background,17.0,True,False,True,False,True,standard_17,standard,200_2.2,2.0,no,1887.0,4.0,True,583458,5.0,36,ball,26.0,False,1
2.0,background,17.0,True,True,True,True,True,control_2,control,control,0.0,yes,3331.0,5.0,True,593528,6.0,37,ball,27.0,False,1
2.0,background,17.0,True,False,True,False,True,easy_0,easy,300_1.4,1.0,no,8133.0,6.0,True,608295,7.0,38,ball,28.0,False,1
2.0,background,17.0,True,False,True,True,True,easy_3,easy,0_1.4,1.0,yes,2340.0,7.0,True,615856,8.0,39,ball,29.0,False,1
2.0,background,17.0,True,False,True,True,True,easy_11,easy,0_1.4,1.0,yes,2517.0,8.0,True,624212,9.0,40,ball,30.0,False,1
2.0,background,17.0,True,False,True,False,True,easy_12,easy,300_1.4,1.0,no,1824.0,9.0,True,634984,10.0,41,ball,31.0,False,1
2.0,background,17.0,True,True,True,False,True,easy_8,easy,300_1.4,1.0,no,2721.0,10.0,True,642080,11.0,42,ball,32.0,False,1
2.0,background,17.0,True,True,True,True,True,standard_22,standard,0_2.2,1.0,yes,1717.0,11.0,True,650110,12.0,43,ball,33.0,False,1
2.0,background,17.0,True,True,True,True,True,easy_14,easy,0_1.4,1.0,yes,1714.0,12.0,True,661192,13.0,44,ball,34.0,False,1
3.0,background,17.0,False,False,True,True,True,standard_11,standard,0_2.2,2.0,no,6295.0,0.0,True,702205,1.0,46,ball,35.0,False,1
3.0,background,17.0,True,True,True,True,True,easy_10,easy,0_1.4,1.0,yes,2659.0,1.0,True,709963,2.0,47,ball,36.0,False,1
3.0,background,17.0,True,False,True,True,True,easy_7,easy,0_1.4,1.0,yes,1686.0,2.0,True,716941,3.0,48,ball,37.0,False,1
3.0,background,17.0,True,False,True,True,True,easy_2,easy,0_1.4,1.0,yes,1058.0,3.0,True,722252,4.0,49,ball,38.0,False,1
3.0,background,17.0,True,True,True,True,True,standard_6,standard,0_2.2,1.0,yes,1476.0,4.0,True,728668,5.0,50,ball,39.0,False,1
3.0,background,17.0,True,True,True,True,True,standard_15,standard,0_2.2,2.0,yes,1032.0,5.0,True,734970,6.0,51,ball,40.0,False,1
3.0,background,17.0,False,False,True,False,True,standard_9,standard,200_2.2,2.0,yes,3969.0,5.0,True,743915,7.0,52,ball,41.0,False,1
3.0,background,17.0,False,True,True,False,True,easy_5,easy,300_1.4,1.0,yes,4082.0,5.0,True,753401,8.0,53,ball,42.0,False,1
3.0,background,17.0,True,True,True,False,True,easy_4,easy,300_1.4,1.0,no,9073.0,6.0,True,767978,9.0,54,ball,43.0,False,1
3.0,background,17.0,True,True,True,False,True,standard_0,standard,200_2.2,1.0,no,8484.0,7.0,True,782055,10.0,55,ball,44.0,False,1
3.0,background,17.0,True,True,True,False,True,control_3,control,control,0.0,no,9598.0,8.0,True,794921,11.0,56,ball,45.0,False,1
3.0,background,17.0,False,False,True,False,True,standard_8,standard,200_2.2,1.0,yes,2836.0,8.0,True,802938,12.0,57,ball,46.0,False,1
3.0,background,17.0,True,False,True,False,True,easy_9,easy,300_1.4,1.0,no,2193.0,9.0,True,812072,13.0,58,ball,47.0,False,1
4.0,background,17.0,False,False,True,True,True,standard_7,standard,0_2.2,2.0,no,2694.0,0.0,True,832742,1.0,60,ball,48.0,False,1
4.0,background,17.0,True,False,True,True,True,standard_14,standard,0_2.2,1.0,yes,1063.0,1.0,True,838983,2.0,61,ball,49.0,False,1
4.0,background,17.0,True,True,True,True,True,control_6,control,control,0.0,yes,1072.0,2.0,True,844042,3.0,62,ball,50.0,False,1
4.0,background,17.0,True,True,True,True,True,standard_19,standard,0_2.2,2.0,yes,846.0,3.0,True,849979,4.0,63,ball,51.0,False,1
4.0,background,17.0,False,False,True,True,True,standard_3,standard,0_2.2,2.0,no,1936.0,3.0,True,856763,5.0,64,ball,52.0,False,1
4.0,background,17.0,False,False,True,False,True,standard_12,standard,200_2.2,1.0,yes,1508.0,3.0,True,863012,6.0,65,ball,53.0,False,1
4.0,background,17.0,True,False,True,True,True,easy_14,easy,0_1.4,1.0,yes,2024.0,4.0,True,869399,7.0,66,ball,54.0,False,1
4.0,background,17.0,True,True,True,True,True,standard_2,standard,0_2.2,1.0,yes,1658.0,5.0,True,876498,8.0,67,ball,55.0,False,1
4.0,background,17.0,True,False,True,False,True,easy_1,easy,300_1.4,1.0,no,1811.0,6.0,True,882372,9.0,68,ball,56.0,False,1
4.0,background,17.0,True,True,True,False,True,easy_12,easy,300_1.4,1.0,no,2959.0,7.0,True,889453,10.0,69,ball,57.0,False,1
4.0,background,17.0,True,True,True,False,True,standard_4,standard,200_2.2,1.0,no,3350.0,8.0,True,898519,11.0,70,ball,58.0,False,1
4.0,background,17.0,True,True,True,False,True,standard_21,standard,200_2.2,2.0,no,2146.0,9.0,True,905508,12.0,71,ball,59.0,False,1
4.0,background,17.0,True,False,True,False,True,standard_16,standard,200_2.2,1.0,no,3143.0,10.0,True,914509,13.0,72,ball,60.0,False,1
5.0,background,17.0,True,False,True,True,True,standard_23,standard,0_2.2,2.0,yes,8927.0,1.0,True,945245,1.0,74,ball,61.0,False,1
5.0,background,17.0,True,False,True,False,True,standard_13,standard,200_2.2,2.0,no,2338.0,2.0,True,952530,2.0,75,ball,62.0,False,1
5.0,background,17.0,True,False,True,True,True,standard_15,standard,0_2.2,2.0,yes,2995.0,3.0,True,960339,3.0,76,ball,63.0,False,1
5.0,background,17.0,True,True,True,True,True,standard_18,standard,0_2.2,1.0,yes,3971.0,4.0,True,969089,4.0,77,ball,64.0,False,1
5.0,background,17.0,True,True,True,True,True,standard_11,standard,0_2.2,2.0,yes,1115.0,5.0,True,975270,5.0,78,ball,65.0,False,1
5.0,background,17.0,True,True,True,False,True,standard_9,standard,200_2.2,2.0,no,2497.0,6.0,True,982578,6.0,79,ball,66.0,False,1
5.0,background,17.0,True,False,True,True,True,standard_10,standard,0_2.2,1.0,yes,1700.0,7.0,True,989478,7.0,80,ball,67.0,False,1
5.0,background,17.0,True,True,True,False,True,standard_1,standard,200_2.2,2.0,no,1174.0,8.0,True,995581,8.0,81,ball,68.0,False,1
5.0,background,17.0,True,True,True,False,True,standard_5,standard,200_2.2,2.0,no,2385.0,9.0,True,1002651,9.0,82,ball,69.0,False,1
5.0,background,17.0,False,False,True,False,True,standard_20,standard,200_2.2,1.0,yes,4225.0,9.0,True,1011790,10.0,83,ball,70.0,False,1
5.0,background,17.0,True,True,True,False,True,standard_17,standard,200_2.2,2.0,no,1745.0,10.0,True,1018495,11.0,84,ball,71.0,False,1
5.0,background,17.0,True,True,True,True,True,control_4,control,control,0.0,yes,2148.0,11.0,True,1023802,12.0,85,ball,72.0,False,1
5.0,background,17.0,True,False,True,True,True,standard_22,standard,0_2.2,1.0,yes,2835.0,12.0,True,1031406,13.0,86,ball,73.0,False,1
6.0,background,17.0,False,True,True,False,True,standard_8,standard,200_2.2,1.0,yes,9100.0,0.0,True,1056328,1.0,88,ball,74.0,False,1
6.0,background,17.0,True,False,True,True,True,hard_14,hard,0_3.2,2.0,yes,6113.0,1.0,True,1068517,2.0,89,ball,75.0,False,1
6.0,background,17.0,True,True,True,False,True,standard_16,standard,200_2.2,1.0,no,1218.0,2.0,True,1074588,3.0,90,ball,76.0,False,1
6.0,background,17.0,True,False,True,True,True,standard_6,standard,0_2.2,1.0,yes,1909.0,3.0,True,1081332,4.0,91,ball,77.0,False,1
6.0,background,17.0,True,True,True,False,True,standard_12,standard,200_2.2,1.0,no,2722.0,4.0,True,1090924,5.0,92,ball,78.0,False,1
6.0,background,17.0,True,True,True,False,True,hard_9,hard,100_3.2,2.0,no,2441.0,5.0,True,1099132,6.0,93,ball,79.0,False,1
6.0,background,17.0,False,False,True,False,True,standard_4,standard,200_2.2,1.0,yes,2545.0,5.0,True,1106683,7.0,94,ball,80.0,False,1
6.0,background,17.0,True,False,True,False,True,standard_0,standard,200_2.2,1.0,no,2934.0,6.0,True,1114442,8.0,95,ball,81.0,False,1
6.0,background,17.0,True,True,True,True,True,standard_3,standard,0_2.2,2.0,yes,3012.0,7.0,True,1122329,9.0,96,ball,82.0,False,1
6.0,background,17.0,True,True,True,True,True,hard_3,hard,0_3.2,2.0,yes,10060.0,8.0,True,1138554,10.0,97,ball,83.0,False,1
6.0,background,17.0,True,True,True,False,True,control_5,control,control,0.0,no,3025.0,9.0,True,1144836,11.0,98,ball,84.0,False,1
6.0,background,17.0,True,True,True,True,True,standard_14,standard,0_2.2,1.0,yes,4003.0,10.0,True,1157815,12.0,99,ball,85.0,False,1
6.0,background,17.0,True,False,True,True,True,standard_2,standard,0_2.2,1.0,yes,1103.0,11.0,True,1164250,13.0,100,ball,86.0,False,1
7.0,background,17.0,True,True,True,True,True,control_0,control,control,0.0,yes,2856.0,1.0,True,1179462,1.0,102,ball,87.0,False,1
7.0,background,17.0,False,False,True,False,True,hard_13,hard,100_3.2,2.0,yes,2757.0,1.0,True,1188087,2.0,103,ball,88.0,False,1
7.0,background,17.0,True,True,True,True,True,standard_23,standard,0_2.2,2.0,yes,915.0,2.0,True,1194086,3.0,104,ball,89.0,False,1
7.0,background,17.0,True,True,True,True,True,standard_7,standard,0_2.2,2.0,yes,1460.0,3.0,True,1200304,4.0,105,ball,90.0,False,1
7.0,background,17.0,False,False,True,False,True,standard_1,standard,200_2.2,2.0,yes,3219.0,3.0,True,1208404,5.0,106,ball,91.0,False,1
7.0,background,17.0,True,True,True,False,True,standard_13,standard,200_2.2,2.0,no,1860.0,4.0,True,1215235,6.0,107,ball,92.0,False,1
7.0,background,17.0,True,True,True,False,True,hard_8,hard,100_3.2,2.0,no,1618.0,5.0,True,1222652,7.0,108,ball,93.0,False,1
7.0,background,17.0,False,False,True,True,True,hard_11,hard,0_3.2,2.0,no,2996.0,5.0,True,1230910,8.0,109,ball,94.0,False,1
7.0,background,17.0,True,True,True,True,True,hard_6,hard,0_3.2,2.0,yes,722.0,6.0,True,1237726,9.0,110,ball,95.0,False,1
7.0,background,17.0,True,False,True,False,True,standard_21,standard,200_2.2,2.0,no,1346.0,7.0,True,1243937,10.0,111,ball,96.0,False,1
7.0,background,17.0,True,True,True,True,True,hard_10,hard,0_3.2,2.0,yes,1391.0,8.0,True,1250900,11.0,112,ball,97.0,False,1
7.0,background,17.0,False,False,True,False,True,hard_0,hard,100_3.2,2.0,yes,1140.0,8.0,True,1257963,12.0,113,ball,98.0,False,1
7.0,background,17.0,True,False,True,True,True,standard_19,standard,0_2.2,2.0,yes,3074.0,9.0,True,1266756,13.0,114,ball,99.0,False,1
8.0,background,17.0,True,True,True,False,True,hard_4,hard,100_3.2,2.0,no,4020.0,1.0,True,1288590,1.0,116,ball,100.0,False,1
8.0,background,17.0,False,False,True,True,True,hard_2,hard,0_3.2,2.0,no,3156.0,1.0,True,1297950,2.0,117,ball,101.0,False,1
8.0,background,17.0,True,True,True,False,True,hard_5,hard,100_3.2,2.0,no,5172.0,2.0,True,1907930,3.0,118,ball,102.0,False,1
8.0,background,17.0,True,True,True,False,True,control_7,control,control,0.0,no,6497.0,3.0,True,1917714,4.0,119,ball,103.0,False,1
8.0,background,17.0,False,False,True,True,True,hard_3,hard,0_3.2,2.0,no,2996.0,3.0,True,1927024,5.0,120,ball,104.0,False,1
8.0,background,17.0,True,True,True,True,True,standard_10,standard,0_2.2,1.0,yes,2773.0,4.0,True,1934758,6.0,121,ball,105.0,False,1
8.0,background,17.0,False,False,True,False,True,standard_5,standard,200_2.2,2.0,yes,3313.0,4.0,True,1943078,7.0,122,ball,106.0,False,1
8.0,background,17.0,True,False,True,True,True,standard_18,standard,0_2.2,1.0,yes,1585.0,5.0,True,1949537,8.0,123,ball,107.0,False,1
8.0,background,17.0,False,False,True,False,True,hard_12,hard,100_3.2,2.0,yes,6385.0,5.0,True,1961831,9.0,124,ball,108.0,False,1
8.0,background,17.0,True,False,True,False,True,hard_9,hard,100_3.2,2.0,no,3954.0,6.0,True,1971665,10.0,125,ball,109.0,False,1
8.0,background,17.0,True,True,True,True,True,hard_14,hard,0_3.2,2.0,yes,6291.0,7.0,True,1983707,11.0,126,ball,110.0,False,1
8.0,background,17.0,False,True,True,False,True,hard_1,hard,100_3.2,2.0,yes,2372.0,7.0,True,1991870,12.0,127,ball,111.0,False,1
8.0,background,17.0,False,False,True,True,True,hard_7,hard,0_3.2,2.0,no,1813.0,7.0,True,1999628,13.0,128,ball,112.0,False,1
9.0,background,17.0,True,True,True,True,True,hard_7,hard,0_3.2,2.0,yes,5300.0,1.0,True,2022154,1.0,130,ball,113.0,False,1
9.0,background,17.0,True,False,True,False,True,hard_4,hard,100_3.2,2.0,no,3093.0,2.0,True,2031294,2.0,131,ball,114.0,False,1
9.0,background,17.0,True,False,True,False,True,hard_1,hard,100_3.2,2.0,no,6802.0,3.0,True,2049514,3.0,132,ball,115.0,False,1
9.0,background,17.0,False,True,True,False,True,hard_12,hard,100_3.2,2.0,yes,3153.0,3.0,True,2058396,4.0,133,ball,116.0,False,1
9.0,background,17.0,False,False,True,False,True,hard_8,hard,100_3.2,2.0,yes,2818.0,3.0,True,2067186,5.0,134,ball,117.0,False,1
9.0,background,17.0,True,True,True,True,True,hard_2,hard,0_3.2,2.0,yes,5763.0,4.0,True,2078761,6.0,135,ball,118.0,False,1
9.0,background,17.0,False,True,True,False,True,hard_13,hard,100_3.2,2.0,yes,3428.0,4.0,True,2088348,7.0,136,ball,119.0,False,1
9.0,background,17.0,True,False,True,False,True,hard_5,hard,100_3.2,2.0,no,803.0,5.0,True,2095175,8.0,137,ball,120.0,False,1
9.0,background,17.0,False,False,True,True,True,hard_10,hard,0_3.2,2.0,no,2021.0,5.0,True,2105967,9.0,138,ball,121.0,False,1
9.0,background,17.0,True,True,True,False,True,hard_0,hard,100_3.2,2.0,no,2421.0,6.0,True,2114294,10.0,139,ball,122.0,False,1
9.0,background,17.0,True,True,True,True,True,hard_11,hard,0_3.2,2.0,yes,1508.0,7.0,True,2124293,11.0,140,ball,123.0,False,1
9.0,background,17.0,True,False,True,True,True,hard_6,hard,0_3.2,2.0,yes,2244.0,8.0,True,2142714,12.0,141,ball,124.0,False,1
10.0,background,17.0,True,True,True,False,True,critical_2,critical,100_3.2,2.0,no,2924.0,1.0,False,2173751,1.0,143,ball,125.0,False,1
10.0,background,17.0,True,True,True,True,True,critical_3,critical,0_3.2,2.0,yes,2756.0,2.0,False,2179493,2.0,144,ball,126.0,False,1
10.0,background,17.0,True,True,True,False,True,critical_4,critical,100_3.2,2.0,no,3138.0,3.0,False,2185139,3.0,145,ball,127.0,False,1
10.0,background,17.0,True,True,True,True,True,critical_5,critical,0_3.2,2.0,yes,2309.0,4.0,False,2190198,4.0,146,ball,128.0,False,1
10.0,background,17.0,False,True,True,False,False,critical_6,critical,100_3.2,2.0,yes,576.0,4.0,False,2192742,5.0,147,ball,129.0,False,1
10.0,background,17.0,True,True,True,False,True,filler_0,filler,200_2.2,1.0,no,2222.0,5.0,False,2197061,6.0,148,ball,130.0,False,1
10.0,background,17.0,True,True,True,False,True,filler_4,filler,200_2.2,1.0,no,3218.0,6.0,False,2203186,7.0,149,ball,131.0,False,1
10.0,background,17.0,False,True,True,True,False,critical_7,critical,0_3.2,2.0,no,1108.0,6.0,False,2206643,8.0,150,ball,132.0,False,1
10.0,background,17.0,True,True,True,True,True,filler_3,filler,0_2.2,2.0,yes,1125.0,7.0,False,2209988,9.0,151,ball,133.0,False,1
10.0,background,17.0,True,True,True,False,True,filler_5,filler,200_2.2,2.0,no,1781.0,8.0,False,2213733,10.0,152,ball,134.0,False,1
10.0,background,17.0,False,True,True,False,False,critical_0,critical,100_3.2,2.0,yes,1508.0,8.0,False,2219314,11.0,153,ball,135.0,False,1
10.0,background,17.0,True,True,True,False,True,filler_1,filler,200_2.2,2.0,no,1157.0,9.0,False,2222500,12.0,154,ball,136.0,False,1
10.0,background,17.0,True,True,True,True,True,filler_2,filler,0_2.2,1.0,yes,4979.0,10.0,False,2229538,13.0,155,ball,137.0,False,1
10.0,background,17.0,False,True,True,True,False,critical_1,critical,0_3.2,2.0,no,4372.0,10.0,False,2236994,14.0,156,ball,138.0,False,1
0.0,False,10.0,True,True,True,True,True,instruct_7,instruct,0_1.6,2.0,yes,6035.0,1.0,True,105304,1.0,5,ball,1.0,False,2
0.0,False,10.0,True,True,True,False,True,instruct_5,instruct,300_1.6,2.0,no,3416.0,2.0,True,114037,2.0,6,ball,2.0,False,2
0.0,False,10.0,False,True,True,True,True,instruct_2,instruct,0_1.6,1.0,no,6893.0,2.0,True,126641,3.0,7,ball,3.0,False,2
0.0,False,10.0,True,True,True,True,True,instruct_6,instruct,0_1.6,1.0,yes,2739.0,3.0,True,135433,4.0,8,ball,4.0,False,2
0.0,False,10.0,False,True,True,False,True,instruct_1,instruct,300_1.6,2.0,yes,2441.0,3.0,True,142924,5.0,9,ball,5.0,False,2
0.0,False,10.0,True,True,True,True,True,instruct_3,instruct,0_1.6,2.0,yes,3062.0,4.0,True,151656,6.0,10,ball,6.0,False,2
0.0,False,10.0,False,True,True,False,True,instruct_4,instruct,300_1.6,1.0,yes,5968.0,4.0,True,162315,7.0,11,ball,7.0,False,2
0.0,False,10.0,False,True,True,False,True,instruct_0,instruct,300_1.6,1.0,yes,1324.0,4.0,True,168841,8.0,12,ball,8.0,False,2
1.0,background,10.0,True,True,True,False,True,easy_0,easy,300_1.4,1.0,no,2245.0,1.0,False,194872,1.0,16,ball,9.0,False,2
1.0,background,10.0,False,False,True,False,True,easy_13,easy,300_1.4,1.0,yes,1611.0,1.0,False,199399,2.0,17,ball,10.0,False,2
1.0,background,10.0,True,False,True,False,True,easy_9,easy,300_1.4,1.0,no,2329.0,2.0,False,204623,3.0,18,ball,11.0,False,2
1.0,background,10.0,True,False,True,False,True,easy_5,easy,300_1.4,1.0,no,8009.0,3.0,False,215463,4.0,19,ball,12.0,False,2
1.0,background,10.0,False,False,True,True,True,easy_3,easy,0_1.4,1.0,no,4192.0,3.0,False,222079,5.0,20,ball,13.0,False,2
1.0,background,10.0,True,False,True,True,True,easy_11,easy,0_1.4,1.0,yes,1236.0,4.0,False,226063,6.0,21,ball,14.0,False,2
1.0,background,10.0,False,False,True,False,True,easy_8,easy,300_1.4,1.0,yes,1237.0,4.0,False,230743,7.0,22,ball,15.0,False,2
1.0,background,10.0,True,True,True,False,True,control_7,control,control,0.0,no,2441.0,5.0,False,238599,8.0,23,ball,16.0,False,2
1.0,background,10.0,True,True,True,True,True,easy_7,easy,0_1.4,1.0,yes,2578.0,6.0,False,243950,9.0,24,ball,17.0,False,2
1.0,background,10.0,False,True,True,False,True,easy_1,easy,300_1.4,1.0,yes,1818.0,6.0,False,248758,10.0,25,ball,18.0,False,2
1.0,background,10.0,True,True,True,True,True,easy_2,easy,0_1.4,1.0,yes,1104.0,7.0,False,252718,11.0,26,ball,19.0,False,2
1.0,background,10.0,False,True,True,True,True,easy_14,easy,0_1.4,1.0,no,5558.0,7.0,False,261390,12.0,27,ball,20.0,False,2
1.0,background,10.0,True,True,True,False,True,easy_4,easy,300_1.4,1.0,no,1422.0,8.0,False,265230,13.0,28,ball,21.0,False,2
2.0,background,10.0,True,True,True,False,True,easy_13,easy,300_1.4,1.0,no,6238.0,1.0,False,296622,1.0,30,ball,22.0,False,2
2.0,background,10.0,True,True,True,False,True,standard_8,standard,200_2.2,1.0,no,4886.0,2.0,False,304088,2.0,31,ball,23.0,False,2
2.0,background,10.0,True,False,True,True,True,easy_7,easy,0_1.4,1.0,yes,2803.0,3.0,False,309447,3.0,32,ball,24.0,False,2
2.0,background,10.0,False,False,True,False,True,easy_12,easy,300_1.4,1.0,yes,2759.0,3.0,False,315152,4.0,33,ball,25.0,False,2
2.0,background,10.0,True,True,True,True,True,control_2,control,control,0.0,yes,3889.0,4.0,False,323143,5.0,34,ball,26.0,False,2
2.0,background,10.0,True,True,True,True,True,easy_6,easy,0_1.4,1.0,yes,6977.0,5.0,False,332727,6.0,35,ball,27.0,False,2
2.0,background,10.0,False,False,True,False,True,easy_1,easy,300_1.4,1.0,yes,3479.0,5.0,False,338752,7.0,36,ball,28.0,False,2
2.0,background,10.0,True,False,True,False,True,easy_0,easy,300_1.4,1.0,no,1526.0,6.0,False,342655,8.0,37,ball,29.0,False,2
2.0,background,10.0,True,True,True,True,True,standard_18,standard,0_2.2,1.0,yes,1137.0,7.0,False,346255,9.0,38,ball,30.0,False,2
2.0,background,10.0,True,True,True,True,True,easy_10,easy,0_1.4,1.0,yes,4238.0,8.0,False,352751,10.0,39,ball,31.0,False,2
2.0,background,10.0,False,True,True,False,True,easy_8,easy,300_1.4,1.0,yes,2883.0,8.0,False,357970,11.0,40,ball,32.0,False,2
2.0,background,10.0,False,False,True,True,True,standard_23,standard,0_2.2,2.0,no,5239.0,8.0,False,365856,12.0,41,ball,33.0,False,2
2.0,background,10.0,True,True,True,True,True,easy_11,easy,0_1.4,1.0,yes,994.0,9.0,False,369447,13.0,42,ball,34.0,False,2
3.0,background,10.0,True,False,True,False,True,easy_4,easy,300_1.4,1.0,no,4211.0,1.0,False,391703,1.0,44,ball,35.0,False,2
3.0,background,10.0,True,True,True,False,True,standard_0,standard,200_2.2,1.0,no,1195.0,2.0,False,394896,2.0,45,ball,36.0,False,2
3.0,background,10.0,True,False,True,True,True,easy_14,easy,0_1.4,1.0,yes,5038.0,3.0,False,401952,3.0,46,ball,37.0,False,2
3.0,background,10.0,False,True,True,False,True,easy_9,easy,300_1.4,1.0,yes,930.0,3.0,False,405039,4.0,47,ball,38.0,False,2
3.0,background,10.0,True,False,True,True,True,standard_15,standard,0_2.2,2.0,yes,1648.0,4.0,False,409175,5.0,48,ball,39.0,False,2
3.0,background,10.0,False,True,True,True,True,easy_3,easy,0_1.4,1.0,no,1297.0,4.0,False,412823,6.0,49,ball,40.0,False,2
3.0,background,10.0,True,True,True,False,True,easy_5,easy,300_1.4,1.0,no,4813.0,5.0,False,419630,7.0,50,ball,41.0,False,2
3.0,background,10.0,True,True,True,True,True,standard_19,standard,0_2.2,2.0,yes,2672.0,6.0,False,424681,8.0,51,ball,42.0,False,2
3.0,background,10.0,True,True,True,True,True,control_0,control,control,0.0,yes,1046.0,7.0,False,427974,9.0,52,ball,43.0,False,2
3.0,background,10.0,False,False,True,True,True,standard_7,standard,0_2.2,2.0,no,1141.0,7.0,False,431294,10.0,53,ball,44.0,False,2
3.0,background,10.0,True,False,True,True,True,easy_2,easy,0_1.4,1.0,yes,1738.0,8.0,False,435199,11.0,54,ball,45.0,False,2
3.0,background,10.0,True,True,True,False,True,standard_4,standard,200_2.2,1.0,no,1276.0,9.0,False,439630,12.0,55,ball,46.0,False,2
3.0,background,10.0,True,False,True,True,True,standard_11,standard,0_2.2,2.0,yes,1674.0,10.0,False,443782,13.0,56,ball,47.0,False,2
4.0,background,10.0,True,False,True,True,True,easy_10,easy,0_1.4,1.0,yes,2733.0,1.0,False,459951,1.0,58,ball,48.0,False,2
4.0,background,10.0,True,True,True,False,True,standard_1,standard,200_2.2,2.0,no,1150.0,2.0,False,463150,2.0,59,ball,49.0,False,2
4.0,background,10.0,True,False,True,True,True,standard_2,standard,0_2.2,1.0,yes,1084.0,3.0,False,466134,3.0,60,ball,50.0,False,2
4.0,background,10.0,True,True,True,False,True,easy_12,easy,300_1.4,1.0,no,1113.0,4.0,False,469670,4.0,61,ball,51.0,False,2
4.0,background,10.0,True,True,True,False,True,standard_21,standard,200_2.2,2.0,no,1212.0,5.0,False,473190,5.0,62,ball,52.0,False,2
4.0,background,10.0,True,False,True,False,True,standard_16,standard,200_2.2,1.0,no,1734.0,6.0,False,477351,6.0,63,ball,53.0,False,2
4.0,background,10.0,False,False,True,False,True,standard_20,standard,200_2.2,1.0,yes,1369.0,6.0,False,480846,7.0,64,ball,54.0,False,2
4.0,background,10.0,False,False,True,True,True,easy_6,easy,0_1.4,1.0,no,1241.0,6.0,False,483943,8.0,65,ball,55.0,False,2
4.0,background,10.0,True,True,True,False,True,standard_17,standard,200_2.2,2.0,no,1818.0,7.0,False,488262,9.0,66,ball,56.0,False,2
4.0,background,10.0,True,True,True,True,True,control_6,control,control,0.0,yes,3238.0,8.0,False,493791,10.0,67,ball,57.0,False,2
4.0,background,10.0,True,True,True,False,True,standard_12,standard,200_2.2,1.0,no,965.0,9.0,False,496934,11.0,68,ball,58.0,False,2
4.0,background,10.0,True,False,True,False,True,standard_5,standard,200_2.2,2.0,no,2260.0,10.0,False,501279,12.0,69,ball,59.0,False,2
4.0,background,10.0,True,False,True,True,True,standard_3,standard,0_2.2,2.0,yes,1022.0,11.0,False,504335,13.0,70,ball,60.0,False,2
5.0,background,10.0,False,True,True,False,True,standard_13,standard,200_2.2,2.0,yes,2338.0,0.0,False,520422,1.0,72,ball,61.0,False,2
5.0,background,10.0,True,True,True,False,True,standard_9,standard,200_2.2,2.0,no,970.0,1.0,False,523831,2.0,73,ball,62.0,False,2
5.0,background,10.0,True,True,True,True,True,standard_11,standard,0_2.2,2.0,yes,2074.0,2.0,False,527887,3.0,74,ball,63.0,False,2
5.0,background,10.0,True,True,True,True,True,standard_22,standard,0_2.2,1.0,yes,1112.0,3.0,False,530998,4.0,75,ball,64.0,False,2
5.0,background,10.0,True,False,True,True,True,standard_6,standard,0_2.2,1.0,yes,1676.0,4.0,False,534934,5.0,76,ball,65.0,False,2
5.0,background,10.0,True,False,True,False,True,standard_4,standard,200_2.2,1.0,no,853.0,5.0,False,537943,6.0,77,ball,66.0,False,2
5.0,background,10.0,True,False,True,False,True,standard_8,standard,200_2.2,1.0,no,2551.0,6.0,False,543086,7.0,78,ball,67.0,False,2
5.0,background,10.0,True,True,True,True,True,standard_15,standard,0_2.2,2.0,yes,1169.0,7.0,False,546159,8.0,79,ball,68.0,False,2
5.0,background,10.0,True,True,True,False,True,control_1,control,control,0.0,no,3538.0,8.0,False,551799,9.0,80,ball,69.0,False,2
5.0,background,10.0,True,False,True,True,True,standard_14,standard,0_2.2,1.0,yes,4349.0,9.0,False,558276,10.0,81,ball,70.0,False,2
5.0,background,10.0,True,False,True,True,True,standard_18,standard,0_2.2,1.0,yes,1243.0,10.0,False,561439,11.0,82,ball,71.0,False,2
5.0,background,10.0,True,False,True,True,True,standard_10,standard,0_2.2,1.0,yes,970.0,11.0,False,564591,12.0,83,ball,72.0,False,2
5.0,background,10.0,False,True,True,True,True,standard_23,standard,0_2.2,2.0,no,2086.0,11.0,False,569376,13.0,84,ball,73.0,False,2
6.0,background,10.0,True,False,True,False,True,standard_12,standard,200_2.2,1.0,no,1326.0,1.0,False,584567,1.0,86,ball,74.0,False,2
6.0,background,10.0,True,False,True,True,True,standard_19,standard,0_2.2,2.0,yes,2661.0,2.0,False,589127,2.0,87,ball,75.0,False,2
6.0,background,10.0,True,True,True,True,True,standard_2,standard,0_2.2,1.0,yes,1817.0,3.0,False,594264,3.0,88,ball,76.0,False,2
6.0,background,10.0,True,True,True,False,True,standard_5,standard,200_2.2,2.0,no,984.0,4.0,False,597479,4.0,89,ball,77.0,False,2
6.0,background,10.0,True,True,True,False,True,control_3,control,control,0.0,no,753.0,5.0,False,600439,5.0,90,ball,78.0,False,2
6.0,background,10.0,True,True,True,False,True,hard_0,hard,100_3.2,2.0,no,1530.0,6.0,False,603983,6.0,91,ball,79.0,False,2
6.0,background,10.0,False,False,True,False,True,standard_1,standard,200_2.2,2.0,yes,3270.0,6.0,False,609390,7.0,92,ball,80.0,False,2
6.0,background,10.0,False,False,True,True,True,hard_7,hard,0_3.2,2.0,no,1755.0,6.0,False,613454,8.0,93,ball,81.0,False,2
6.0,background,10.0,False,True,True,True,True,hard_10,hard,0_3.2,2.0,no,1406.0,6.0,False,616903,9.0,94,ball,82.0,False,2
6.0,background,10.0,False,True,True,True,True,standard_7,standard,0_2.2,2.0,no,976.0,6.0,False,620014,10.0,95,ball,83.0,False,2
6.0,background,10.0,False,True,True,False,True,standard_16,standard,200_2.2,1.0,yes,1283.0,6.0,False,623318,11.0,96,ball,84.0,False,2
6.0,background,10.0,False,False,True,False,True,standard_0,standard,200_2.2,1.0,yes,1975.0,6.0,False,627199,12.0,97,ball,85.0,False,2
6.0,background,10.0,False,True,True,False,True,standard_20,standard,200_2.2,1.0,yes,1942.0,6.0,False,631366,13.0,98,ball,86.0,False,2
7.0,background,10.0,False,True,True,False,True,hard_9,hard,100_3.2,2.0,yes,1364.0,0.0,False,646670,1.0,100,ball,87.0,False,2
7.0,background,10.0,False,False,True,True,True,hard_2,hard,0_3.2,2.0,no,1321.0,0.0,False,650255,2.0,101,ball,88.0,False,2
7.0,background,10.0,True,False,True,False,True,standard_21,standard,200_2.2,2.0,no,733.0,1.0,False,652838,3.0,102,ball,89.0,False,2
7.0,background,10.0,True,False,True,False,True,standard_9,standard,200_2.2,2.0,no,664.0,2.0,False,655318,4.0,103,ball,90.0,False,2
7.0,background,10.0,True,False,True,False,True,standard_17,standard,200_2.2,2.0,no,985.0,3.0,False,658244,5.0,104,ball,91.0,False,2
7.0,background,10.0,False,True,True,False,True,hard_8,hard,100_3.2,2.0,yes,2015.0,3.0,False,662486,6.0,105,ball,92.0,False,2
7.0,background,10.0,False,False,True,True,True,hard_14,hard,0_3.2,2.0,no,863.0,3.0,False,665311,7.0,106,ball,93.0,False,2
7.0,background,10.0,True,True,True,True,True,standard_14,standard,0_2.2,1.0,yes,2367.0,4.0,False,669736,8.0,107,ball,94.0,False,2
7.0,background,10.0,True,True,True,True,True,standard_10,standard,0_2.2,1.0,yes,1369.0,5.0,False,673071,9.0,108,ball,95.0,False,2
7.0,background,10.0,True,True,True,False,True,hard_12,hard,100_3.2,2.0,no,2976.0,6.0,False,678262,10.0,109,ball,96.0,False,2
7.0,background,10.0,True,True,True,True,True,standard_3,standard,0_2.2,2.0,yes,752.0,7.0,False,681119,11.0,110,ball,97.0,False,2
7.0,background,10.0,False,False,True,True,True,hard_11,hard,0_3.2,2.0,no,1689.0,7.0,False,684829,12.0,111,ball,98.0,False,2
7.0,background,10.0,True,True,True,True,True,control_4,control,control,0.0,yes,750.0,8.0,False,687655,13.0,112,ball,99.0,False,2
8.0,background,10.0,True,False,True,False,True,hard_0,hard,100_3.2,2.0,no,2813.0,1.0,False,706264,1.0,114,ball,100.0,False,2
8.0,background,10.0,False,True,True,True,True,hard_6,hard,0_3.2,2.0,no,3403.0,1.0,False,711188,2.0,115,ball,101.0,False,2
8.0,background,10.0,True,False,True,False,True,hard_13,hard,100_3.2,2.0,no,809.0,2.0,False,714407,3.0,116,ball,102.0,False,2
8.0,background,10.0,True,True,True,False,True,hard_5,hard,100_3.2,2.0,no,799.0,3.0,False,717088,4.0,117,ball,103.0,False,2
8.0,background,10.0,True,False,True,False,True,hard_1,hard,100_3.2,2.0,no,1850.0,4.0,False,720895,5.0,118,ball,104.0,False,2
8.0,background,10.0,True,True,True,False,True,control_5,control,control,0.0,no,1050.0,5.0,False,723831,6.0,119,ball,105.0,False,2
8.0,background,10.0,True,False,True,True,True,hard_10,hard,0_3.2,2.0,yes,2125.0,6.0,False,729111,7.0,120,ball,106.0,False,2
8.0,background,10.0,False,False,True,True,True,hard_3,hard,0_3.2,2.0,no,2581.0,6.0,False,734118,8.0,121,ball,107.0,False,2
8.0,background,10.0,False,True,True,True,True,hard_7,hard,0_3.2,2.0,no,1968.0,6.0,False,737943,9.0,122,ball,108.0,False,2
8.0,background,10.0,True,True,True,False,True,hard_4,hard,100_3.2,2.0,no,1861.0,7.0,False,742710,10.0,123,ball,109.0,False,2
8.0,background,10.0,True,False,True,True,True,standard_22,standard,0_2.2,1.0,yes,699.0,8.0,False,745318,11.0,124,ball,110.0,False,2
8.0,background,10.0,True,True,True,True,True,standard_6,standard,0_2.2,1.0,yes,1220.0,9.0,False,748718,12.0,125,ball,111.0,False,2
8.0,background,10.0,False,False,True,False,True,standard_13,standard,200_2.2,2.0,yes,2168.0,9.0,False,753278,13.0,126,ball,112.0,False,2
9.0,background,10.0,True,True,True,True,True,hard_11,hard,0_3.2,2.0,yes,1778.0,1.0,False,770233,1.0,128,ball,113.0,False,2
9.0,background,10.0,False,False,True,True,True,hard_6,hard,0_3.2,2.0,no,2824.0,1.0,False,775046,2.0,129,ball,114.0,False,2
9.0,background,10.0,False,False,True,False,True,hard_8,hard,100_3.2,2.0,yes,975.0,1.0,False,777870,3.0,130,ball,115.0,False,2
9.0,background,10.0,True,True,True,True,True,hard_2,hard,0_3.2,2.0,yes,1255.0,2.0,False,781046,4.0,131,ball,116.0,False,2
9.0,background,10.0,True,False,True,False,True,hard_4,hard,100_3.2,2.0,no,2302.0,3.0,False,785718,5.0,132,ball,117.0,False,2
9.0,background,10.0,True,True,True,False,True,hard_1,hard,100_3.2,2.0,no,3203.0,4.0,False,790887,6.0,133,ball,118.0,False,2
9.0,background,10.0,True,False,True,False,True,hard_12,hard,100_3.2,2.0,no,1493.0,5.0,False,794272,7.0,134,ball,119.0,False,2
9.0,background,10.0,True,True,True,False,True,hard_13,hard,100_3.2,2.0,no,1031.0,6.0,False,797255,8.0,135,ball,120.0,False,2
9.0,background,10.0,True,False,True,False,True,hard_5,hard,100_3.2,2.0,no,1087.0,7.0,False,800895,9.0,136,ball,121.0,False,2
9.0,background,10.0,True,True,True,True,True,hard_14,hard,0_3.2,2.0,yes,948.0,8.0,False,803815,10.0,137,ball,122.0,False,2
9.0,background,10.0,False,True,True,True,True,hard_3,hard,0_3.2,2.0,no,1614.0,8.0,False,807281,11.0,138,ball,123.0,False,2
9.0,background,10.0,True,False,True,False,True,hard_9,hard,100_3.2,2.0,no,1714.0,9.0,False,811119,12.0,139,ball,124.0,False,2
10.0,background,10.0,False,True,True,True,True,critical_4,critical,0_3.2,2.0,no,4138.0,0.0,False,831967,1.0,141,ball,125.0,False,2
10.0,background,10.0,True,True,True,False,True,critical_5,critical,100_3.2,2.0,no,825.0,1.0,False,834687,2.0,142,ball,126.0,False,2
10.0,background,10.0,False,True,True,True,True,critical_6,critical,0_3.2,2.0,no,943.0,1.0,False,837640,3.0,143,ball,127.0,False,2
10.0,background,10.0,True,True,True,False,True,critical_7,critical,100_3.2,2.0,no,5095.0,2.0,False,846711,4.0,144,ball,128.0,False,2
10.0,background,10.0,False,True,True,True,False,critical_0,critical,0_3.2,2.0,no,1005.0,2.0,False,849854,5.0,145,ball,129.0,False,2
10.0,background,10.0,True,True,True,True,True,filler_3,filler,0_2.2,2.0,yes,976.0,3.0,False,852830,6.0,146,ball,130.0,False,2
10.0,background,10.0,True,True,True,False,True,filler_5,filler,200_2.2,2.0,no,2747.0,4.0,False,857638,7.0,147,ball,131.0,False,2
10.0,background,10.0,True,True,True,False,False,critical_1,critical,100_3.2,2.0,no,1673.0,5.0,False,861324,8.0,148,ball,132.0,False,2
10.0,background,10.0,False,True,True,False,True,filler_0,filler,200_2.2,1.0,yes,1547.0,5.0,False,864854,9.0,149,ball,133.0,False,2
10.0,background,10.0,True,True,True,False,True,filler_4,filler,200_2.2,1.0,no,5283.0,6.0,False,872191,10.0,150,ball,134.0,False,2
10.0,background,10.0,False,True,True,True,False,critical_2,critical,0_3.2,2.0,no,1405.0,6.0,False,875582,11.0,151,ball,135.0,False,2
10.0,background,10.0,True,True,True,False,True,filler_1,filler,200_2.2,2.0,no,1088.0,7.0,False,878551,12.0,152,ball,136.0,False,2
10.0,background,10.0,True,True,True,True,True,filler_2,filler,0_2.2,1.0,yes,3982.0,8.0,False,884615,13.0,153,ball,137.0,False,2
10.0,background,10.0,True,True,True,False,False,critical_3,critical,100_3.2,2.0,no,5057.0,9.0,False,891886,14.0,154,ball,138.0,False,2
0.0,False,7.0,False,True,True,False,True,instruct_4,instruct,300_1.6,1.0,yes,3232.0,0.0,True,192397,1.0,5,ball,1.0,False,3
0.0,False,7.0,False,True,True,False,True,instruct_1,instruct,300_1.6,2.0,yes,3067.0,0.0,True,201524,2.0,6,ball,2.0,False,3
0.0,False,7.0,True,True,True,False,True,instruct_0,instruct,300_1.6,1.0,no,2630.0,1.0,True,212118,3.0,7,ball,3.0,False,3
0.0,False,7.0,True,True,True,True,True,instruct_6,instruct,0_1.6,1.0,yes,2158.0,2.0,True,219983,4.0,8,ball,4.0,False,3
0.0,False,7.0,True,True,True,True,True,instruct_7,instruct,0_1.6,2.0,yes,2461.0,3.0,True,227630,5.0,9,ball,5.0,False,3
0.0,False,7.0,False,True,True,True,True,instruct_2,instruct,0_1.6,1.0,no,1495.0,3.0,True,235009,6.0,10,ball,6.0,False,3
0.0,False,7.0,True,True,True,True,True,instruct_3,instruct,0_1.6,2.0,yes,1263.0,4.0,True,241557,7.0,11,ball,7.0,False,3
0.0,False,7.0,True,True,True,False,True,instruct_5,instruct,300_1.6,2.0,no,1297.0,5.0,True,248244,8.0,12,ball,8.0,False,3
1.0,background,7.0,False,False,True,True,True,easy_14,easy,0_1.4,1.0,no,4063.0,0.0,True,311303,1.0,16,ball,9.0,False,3
1.0,background,7.0,True,True,True,True,True,easy_2,easy,0_1.4,1.0,yes,1720.0,1.0,True,318162,2.0,17,ball,10.0,False,3
1.0,background,7.0,False,True,True,False,True,easy_8,easy,300_1.4,1.0,yes,3922.0,1.0,True,327742,3.0,18,ball,11.0,False,3
1.0,background,7.0,False,False,True,False,True,easy_4,easy,300_1.4,1.0,yes,1955.0,1.0,True,335455,4.0,19,ball,12.0,False,3
1.0,background,7.0,False,False,True,False,True,easy_9,easy,300_1.4,1.0,yes,1218.0,1.0,True,341268,5.0,20,ball,13.0,False,3
1.0,background,7.0,False,False,True,True,True,easy_3,easy,0_1.4,1.0,no,1749.0,1.0,True,347347,6.0,21,ball,14.0,False,3
1.0,background,7.0,False,True,True,True,True,easy_7,easy,0_1.4,1.0,no,2733.0,1.0,True,354938,7.0,22,ball,15.0,False,3
1.0,background,7.0,True,True,True,True,True,easy_11,easy,0_1.4,1.0,yes,1157.0,2.0,True,361605,8.0,23,ball,16.0,False,3
1.0,background,7.0,False,False,True,True,True,easy_6,easy,0_1.4,1.0,no,1765.0,2.0,True,368136,9.0,24,ball,17.0,False,3
1.0,background,7.0,True,True,True,False,True,easy_12,easy,300_1.4,1.0,no,1489.0,3.0,True,374448,10.0,25,ball,18.0,False,3
1.0,background,7.0,False,False,True,False,True,easy_1,easy,300_1.4,1.0,yes,1200.0,3.0,True,380318,11.0,26,ball,19.0,False,3
1.0,background,7.0,True,True,True,False,True,control_3,control,control,0.0,no,9458.0,4.0,True,393112,12.0,27,ball,20.0,False,3
1.0,background,7.0,True,True,True,False,True,easy_0,easy,300_1.4,1.0,no,969.0,5.0,True,400070,13.0,28,ball,21.0,False,3
2.0,background,7.0,True,True,True,True,True,control_6,control,control,0.0,yes,3191.0,1.0,True,441991,1.0,30,ball,22.0,False,3
2.0,background,7.0,True,True,True,True,True,easy_14,easy,0_1.4,1.0,yes,2410.0,2.0,True,449473,2.0,31,ball,23.0,False,3
2.0,background,7.0,False,True,True,False,True,easy_4,easy,300_1.4,1.0,yes,3314.0,2.0,True,463115,3.0,32,ball,24.0,False,3
2.0,background,7.0,False,True,True,True,True,standard_19,standard,0_2.2,2.0,no,4797.0,2.0,True,477096,4.0,33,ball,25.0,False,3
2.0,background,7.0,True,True,True,True,True,easy_10,easy,0_1.4,1.0,yes,3317.0,3.0,True,486553,5.0,34,ball,26.0,False,3
2.0,background,7.0,True,True,True,True,True,easy_6,easy,0_1.4,1.0,yes,1641.0,4.0,True,493335,6.0,35,ball,27.0,False,3
2.0,background,7.0,True,False,True,True,True,easy_11,easy,0_1.4,1.0,yes,1828.0,5.0,True,500197,7.0,36,ball,28.0,False,3
2.0,background,7.0,True,False,True,True,True,easy_2,easy,0_1.4,1.0,yes,1453.0,6.0,True,505949,8.0,37,ball,29.0,False,3
2.0,background,7.0,False,True,True,False,True,easy_13,easy,300_1.4,1.0,yes,1614.0,6.0,True,512460,9.0,38,ball,30.0,False,3
2.0,background,7.0,True,False,True,True,True,standard_11,standard,0_2.2,2.0,yes,1203.0,7.0,True,519874,10.0,39,ball,31.0,False,3
2.0,background,7.0,True,False,True,True,True,easy_7,easy,0_1.4,1.0,yes,1065.0,8.0,True,525281,11.0,40,ball,32.0,False,3
2.0,background,7.0,True,False,True,False,True,easy_5,easy,300_1.4,1.0,no,1625.0,9.0,True,531297,12.0,41,ball,33.0,False,3
2.0,background,7.0,True,True,True,False,True,standard_17,standard,200_2.2,2.0,no,2125.0,10.0,True,539115,13.0,42,ball,34.0,False,3
3.0,background,7.0,False,True,True,False,True,easy_9,easy,300_1.4,1.0,yes,6330.0,0.0,True,618959,1.0,44,ball,35.0,False,3
3.0,background,7.0,False,True,True,True,True,standard_6,standard,0_2.2,1.0,no,5595.0,0.0,True,630975,2.0,45,ball,36.0,False,3
3.0,background,7.0,False,False,True,False,True,easy_8,easy,300_1.4,1.0,yes,1670.0,0.0,True,637077,3.0,46,ball,37.0,False,3
3.0,background,7.0,True,False,True,False,True,standard_4,standard,200_2.2,1.0,no,2047.0,1.0,True,644302,4.0,47,ball,38.0,False,3
3.0,background,7.0,False,True,True,True,True,easy_3,easy,0_1.4,1.0,no,9858.0,1.0,True,672210,5.0,48,ball,39.0,False,3
3.0,background,7.0,True,True,True,True,True,standard_22,standard,0_2.2,1.0,yes,3393.0,2.0,True,682740,6.0,49,ball,40.0,False,3
3.0,background,7.0,False,False,True,False,True,easy_12,easy,300_1.4,1.0,yes,3768.0,2.0,True,692320,7.0,50,ball,41.0,False,3
3.0,background,7.0,True,False,True,False,True,easy_0,easy,300_1.4,1.0,no,4190.0,3.0,True,702451,8.0,51,ball,42.0,False,3
3.0,background,7.0,True,True,True,False,True,control_1,control,control,0.0,no,1704.0,4.0,True,707958,9.0,52,ball,43.0,False,3
3.0,background,7.0,True,True,True,False,True,easy_1,easy,300_1.4,1.0,no,2176.0,5.0,True,715447,10.0,53,ball,44.0,False,3
3.0,background,7.0,True,False,True,False,True,standard_21,standard,200_2.2,2.0,no,2328.0,6.0,True,723505,11.0,54,ball,45.0,False,3
3.0,background,7.0,False,False,True,False,True,standard_16,standard,200_2.2,1.0,yes,2723.0,6.0,True,731706,12.0,55,ball,46.0,False,3
3.0,background,7.0,True,True,True,True,True,standard_3,standard,0_2.2,2.0,yes,1611.0,7.0,True,739979,13.0,56,ball,47.0,False,3
4.0,background,7.0,False,True,True,True,True,standard_15,standard,0_2.2,2.0,no,10268.0,0.0,True,794845,1.0,58,ball,48.0,False,3
4.0,background,7.0,False,False,True,True,True,standard_14,standard,0_2.2,1.0,no,1423.0,0.0,True,803451,2.0,59,ball,49.0,False,3
4.0,background,7.0,True,False,True,False,True,easy_13,easy,300_1.4,1.0,no,2282.0,1.0,True,811281,3.0,60,ball,50.0,False,3
4.0,background,7.0,False,False,True,False,True,standard_8,standard,200_2.2,1.0,yes,1097.0,1.0,True,818367,4.0,61,ball,51.0,False,3
4.0,background,7.0,False,True,True,True,True,standard_18,standard,0_2.2,1.0,no,1328.0,1.0,True,825580,5.0,62,ball,52.0,False,3
4.0,background,7.0,True,False,True,True,True,easy_10,easy,0_1.4,1.0,yes,749.0,2.0,True,831173,6.0,63,ball,53.0,False,3
4.0,background,7.0,False,True,True,True,True,standard_23,standard,0_2.2,2.0,no,2409.0,2.0,True,839908,7.0,64,ball,54.0,False,3
4.0,background,7.0,True,True,True,True,True,control_2,control,control,0.0,yes,953.0,3.0,True,844379,8.0,65,ball,55.0,False,3
4.0,background,7.0,False,False,True,True,True,standard_7,standard,0_2.2,2.0,no,2015.0,3.0,True,852820,9.0,66,ball,56.0,False,3
4.0,background,7.0,False,False,True,False,True,standard_13,standard,200_2.2,2.0,yes,924.0,3.0,True,858886,10.0,67,ball,57.0,False,3
4.0,background,7.0,True,False,True,False,True,standard_0,standard,200_2.2,1.0,no,1095.0,4.0,True,865673,11.0,68,ball,58.0,False,3
4.0,background,7.0,False,True,True,False,True,easy_5,easy,300_1.4,1.0,yes,1458.0,4.0,True,872132,12.0,69,ball,59.0,False,3
4.0,background,7.0,True,True,True,False,True,standard_12,standard,200_2.2,1.0,no,797.0,5.0,True,878578,13.0,70,ball,60.0,False,3
5.0,background,7.0,False,True,True,False,True,standard_5,standard,200_2.2,2.0,yes,1422.0,0.0,True,906536,1.0,72,ball,61.0,False,3
5.0,background,7.0,True,True,True,True,True,control_0,control,control,0.0,yes,1143.0,1.0,True,911638,2.0,73,ball,62.0,False,3
5.0,background,7.0,True,False,True,True,True,standard_19,standard,0_2.2,2.0,yes,1783.0,2.0,True,919263,3.0,74,ball,63.0,False,3
5.0,background,7.0,False,False,True,False,True,standard_1,standard,200_2.2,2.0,yes,1391.0,2.0,True,927857,4.0,75,ball,64.0,False,3
5.0,background,7.0,True,False,True,False,True,standard_20,standard,200_2.2,1.0,no,8533.0,3.0,True,941292,5.0,76,ball,65.0,False,3
5.0,background,7.0,True,False,True,False,True,standard_17,standard,200_2.2,2.0,no,977.0,4.0,True,948718,6.0,77,ball,66.0,False,3
5.0,background,7.0,True,False,True,True,True,standard_10,standard,0_2.2,1.0,yes,1419.0,5.0,True,956097,7.0,78,ball,67.0,False,3
5.0,background,7.0,False,True,True,True,True,standard_2,standard,0_2.2,1.0,no,953.0,5.0,True,962931,8.0,79,ball,68.0,False,3
5.0,background,7.0,True,True,True,False,True,standard_9,standard,200_2.2,2.0,no,1093.0,6.0,True,970743,9.0,80,ball,69.0,False,3
5.0,background,7.0,False,True,True,False,True,standard_16,standard,200_2.2,1.0,yes,914.0,6.0,True,977227,10.0,81,ball,70.0,False,3
5.0,background,7.0,True,True,True,True,True,standard_11,standard,0_2.2,2.0,yes,907.0,7.0,True,983147,11.0,82,ball,71.0,False,3
5.0,background,7.0,True,False,True,True,True,standard_3,standard,0_2.2,2.0,yes,1531.0,8.0,True,990001,12.0,83,ball,72.0,False,3
5.0,background,7.0,True,True,True,False,True,standard_4,standard,200_2.2,1.0,no,1034.0,9.0,True,996425,13.0,84,ball,73.0,False,3
6.0,background,7.0,False,True,True,False,True,standard_13,standard,200_2.2,2.0,yes,2689.0,0.0,True,1017926,1.0,86,ball,74.0,False,3
6.0,background,7.0,True,True,True,False,True,standard_21,standard,200_2.2,2.0,no,1016.0,1.0,True,1024158,2.0,87,ball,75.0,False,3
6.0,background,7.0,True,False,True,True,True,standard_18,standard,0_2.2,1.0,yes,1367.0,2.0,True,1030868,3.0,88,ball,76.0,False,3
6.0,background,7.0,True,False,True,True,True,standard_6,standard,0_2.2,1.0,yes,811.0,3.0,True,1036854,4.0,89,ball,77.0,False,3
6.0,background,7.0,True,True,True,True,True,standard_7,standard,0_2.2,2.0,yes,751.0,4.0,True,1043607,5.0,90,ball,78.0,False,3
6.0,background,7.0,False,True,True,False,True,standard_8,standard,200_2.2,1.0,yes,941.0,4.0,True,1049990,6.0,91,ball,79.0,False,3
6.0,background,7.0,True,True,True,False,True,control_7,control,control,0.0,no,1734.0,5.0,True,1055196,7.0,92,ball,80.0,False,3
6.0,background,7.0,True,True,True,False,True,hard_0,hard,100_3.2,2.0,no,506.0,6.0,True,1062945,8.0,93,ball,81.0,False,3
6.0,background,7.0,False,True,True,True,True,standard_14,standard,0_2.2,1.0,no,1284.0,6.0,True,1070106,9.0,94,ball,82.0,False,3
6.0,background,7.0,False,False,True,True,True,standard_23,standard,0_2.2,2.0,no,3499.0,6.0,True,1078777,10.0,95,ball,83.0,False,3
6.0,background,7.0,True,False,True,True,True,standard_22,standard,0_2.2,1.0,yes,1187.0,7.0,True,1085445,11.0,96,ball,84.0,False,3
6.0,background,7.0,True,False,True,False,True,hard_9,hard,100_3.2,2.0,no,1594.0,8.0,True,1094416,12.0,97,ball,85.0,False,3
6.0,background,7.0,False,True,True,True,True,hard_11,hard,0_3.2,2.0,no,1547.0,8.0,True,1102410,13.0,98,ball,86.0,False,3
7.0,background,7.0,True,False,True,True,True,hard_2,hard,0_3.2,2.0,yes,1266.0,1.0,True,1135044,1.0,100,ball,87.0,False,3
7.0,background,7.0,True,False,True,True,True,standard_15,standard,0_2.2,2.0,yes,2111.0,2.0,True,1142252,2.0,101,ball,88.0,False,3
7.0,background,7.0,True,False,True,False,True,standard_12,standard,200_2.2,1.0,no,1579.0,3.0,True,1149225,3.0,102,ball,89.0,False,3
7.0,background,7.0,True,True,True,False,True,hard_8,hard,100_3.2,2.0,no,1469.0,4.0,True,1157559,4.0,103,ball,90.0,False,3
7.0,background,7.0,True,False,True,True,True,hard_6,hard,0_3.2,2.0,yes,821.0,5.0,True,1164849,5.0,104,ball,91.0,False,3
7.0,background,7.0,True,True,True,True,True,standard_10,standard,0_2.2,1.0,yes,1205.0,6.0,True,1170922,6.0,105,ball,92.0,False,3
7.0,background,7.0,False,True,True,False,True,standard_0,standard,200_2.2,1.0,yes,1393.0,6.0,True,1178471,7.0,106,ball,93.0,False,3
7.0,background,7.0,True,True,True,False,True,standard_20,standard,200_2.2,1.0,no,657.0,7.0,True,1183953,8.0,107,ball,94.0,False,3
7.0,background,7.0,True,False,True,False,True,standard_9,standard,200_2.2,2.0,no,1396.0,8.0,True,1191530,9.0,108,ball,95.0,False,3
7.0,background,7.0,True,True,True,True,True,control_4,control,control,0.0,yes,1854.0,9.0,True,1197480,10.0,109,ball,96.0,False,3
7.0,background,7.0,True,True,True,False,True,hard_5,hard,100_3.2,2.0,no,1096.0,10.0,True,1205252,11.0,110,ball,97.0,False,3
7.0,background,7.0,True,False,True,False,True,hard_13,hard,100_3.2,2.0,no,1198.0,11.0,True,1213666,12.0,111,ball,98.0,False,3
7.0,background,7.0,True,True,True,True,True,hard_14,hard,0_3.2,2.0,yes,984.0,12.0,True,1221729,13.0,112,ball,99.0,False,3
8.0,background,7.0,True,True,True,False,True,hard_1,hard,100_3.2,2.0,no,5419.0,1.0,True,1252261,1.0,114,ball,100.0,False,3
8.0,background,7.0,True,False,True,True,True,hard_11,hard,0_3.2,2.0,yes,6991.0,2.0,True,1265423,2.0,115,ball,101.0,False,3
8.0,background,7.0,False,True,True,True,True,hard_3,hard,0_3.2,2.0,no,1775.0,2.0,True,1273697,3.0,116,ball,102.0,False,3
8.0,background,7.0,False,False,True,False,True,hard_0,hard,100_3.2,2.0,yes,856.0,2.0,True,1280603,4.0,117,ball,103.0,False,3
8.0,background,7.0,True,False,True,True,True,standard_2,standard,0_2.2,1.0,yes,1297.0,3.0,True,1287255,5.0,118,ball,104.0,False,3
8.0,background,7.0,True,False,True,False,True,hard_12,hard,100_3.2,2.0,no,1032.0,4.0,True,1295286,6.0,119,ball,105.0,False,3
8.0,background,7.0,False,False,True,True,True,hard_10,hard,0_3.2,2.0,no,1781.0,4.0,True,1303395,7.0,120,ball,106.0,False,3
8.0,background,7.0,False,True,True,False,True,standard_1,standard,200_2.2,2.0,yes,395.0,4.0,True,1308666,8.0,121,ball,107.0,False,3
8.0,background,7.0,False,True,True,False,True,hard_9,hard,100_3.2,2.0,yes,1422.0,4.0,True,1317176,9.0,122,ball,108.0,False,3
8.0,background,7.0,True,False,True,False,True,standard_5,standard,200_2.2,2.0,no,1002.0,5.0,True,1323253,10.0,123,ball,109.0,False,3
8.0,background,7.0,False,True,True,False,True,hard_4,hard,100_3.2,2.0,yes,671.0,5.0,True,1330224,11.0,124,ball,110.0,False,3
8.0,background,7.0,True,True,True,False,True,control_5,control,control,0.0,no,954.0,6.0,True,1334747,12.0,125,ball,111.0,False,3
8.0,background,7.0,True,False,True,True,True,hard_7,hard,0_3.2,2.0,yes,965.0,7.0,True,1342079,13.0,126,ball,112.0,False,3
9.0,background,7.0,True,True,True,True,True,hard_10,hard,0_3.2,2.0,yes,3815.0,1.0,True,1386429,1.0,128,ball,113.0,False,3
9.0,background,7.0,False,False,True,False,True,hard_4,hard,100_3.2,2.0,yes,1126.0,1.0,True,1393674,2.0,129,ball,114.0,False,3
9.0,background,7.0,False,False,True,True,True,hard_14,hard,0_3.2,2.0,no,469.0,1.0,True,1399970,3.0,130,ball,115.0,False,3
9.0,background,7.0,False,False,True,False,True,hard_8,hard,100_3.2,2.0,yes,363.0,1.0,True,1406180,4.0,131,ball,116.0,False,3
9.0,background,7.0,True,False,True,False,True,hard_5,hard,100_3.2,2.0,no,1170.0,2.0,True,1413442,5.0,132,ball,117.0,False,3
9.0,background,7.0,False,True,True,True,True,hard_7,hard,0_3.2,2.0,no,2593.0,2.0,True,1422018,6.0,133,ball,118.0,False,3
9.0,background,7.0,False,True,True,True,True,hard_6,hard,0_3.2,2.0,no,2104.0,2.0,True,1429430,7.0,134,ball,119.0,False,3
9.0,background,7.0,False,True,True,False,True,hard_13,hard,100_3.2,2.0,yes,891.0,2.0,True,1436336,8.0,135,ball,120.0,False,3
9.0,background,7.0,False,True,True,True,True,hard_2,hard,0_3.2,2.0,no,705.0,2.0,True,1442742,9.0,136,ball,121.0,False,3
9.0,background,7.0,False,False,True,False,True,hard_1,hard,100_3.2,2.0,yes,951.0,2.0,True,1449599,10.0,137,ball,122.0,False,3
9.0,background,7.0,True,True,True,False,True,hard_12,hard,100_3.2,2.0,no,445.0,3.0,True,1455298,11.0,138,ball,123.0,False,3
9.0,background,7.0,True,False,True,True,True,hard_3,hard,0_3.2,2.0,yes,627.0,4.0,True,1461831,12.0,139,ball,124.0,False,3
10.0,background,7.0,False,True,True,True,True,critical_4,critical,0_3.2,2.0,no,2018.0,0.0,False,1484055,1.0,141,ball,125.0,False,3
10.0,background,7.0,False,True,True,False,True,critical_5,critical,100_3.2,2.0,yes,1703.0,0.0,False,1488652,2.0,142,ball,126.0,False,3
10.0,background,7.0,False,True,True,True,True,critical_6,critical,0_3.2,2.0,no,1220.0,0.0,False,1492900,3.0,143,ball,127.0,False,3
10.0,background,7.0,False,True,True,False,True,critical_7,critical,100_3.2,2.0,yes,469.0,0.0,False,1496668,4.0,144,ball,128.0,False,3
10.0,background,7.0,False,True,True,True,False,critical_0,critical,0_3.2,2.0,no,671.0,0.0,False,1499453,5.0,145,ball,129.0,False,3
10.0,background,7.0,False,True,True,False,True,filler_1,filler,200_2.2,2.0,yes,847.0,0.0,False,1503207,6.0,146,ball,130.0,False,3
10.0,background,7.0,True,True,True,False,True,filler_5,filler,200_2.2,2.0,no,922.0,1.0,False,1506935,7.0,147,ball,131.0,False,3
10.0,background,7.0,False,True,True,False,False,critical_1,critical,100_3.2,2.0,yes,783.0,1.0,False,1509943,8.0,148,ball,132.0,False,3
10.0,background,7.0,True,True,True,True,True,filler_3,filler,0_2.2,2.0,yes,892.0,2.0,False,1512797,9.0,149,ball,133.0,False,3
10.0,background,7.0,False,True,True,False,True,filler_0,filler,200_2.2,1.0,yes,754.0,2.0,False,1515771,10.0,150,ball,134.0,False,3
10.0,background,7.0,False,True,True,True,False,critical_2,critical,0_3.2,2.0,no,978.0,2.0,False,1518713,11.0,151,ball,135.0,False,3
10.0,background,7.0,False,True,True,False,True,filler_4,filler,200_2.2,1.0,yes,284.0,2.0,False,1521173,12.0,152,ball,136.0,False,3
10.0,background,7.0,True,True,True,True,True,filler_2,filler,0_2.2,1.0,yes,595.0,3.0,False,1523864,13.0,153,ball,137.0,False,3
10.0,background,7.0,True,True,True,False,False,critical_3,critical,100_3.2,2.0,no,750.0,4.0,False,1526835,14.0,154,ball,138.0,False,3
0.0,False,23.0,True,True,True,True,True,instruct_6,instruct,0_1.6,1.0,yes,1244.0,1.0,True,28663,1.0,5,ball,1.0,False,4
0.0,False,23.0,True,True,True,False,True,instruct_4,instruct,300_1.6,1.0,no,373.0,2.0,True,34136,2.0,6,ball,2.0,False,4
0.0,False,23.0,False,True,True,True,True,instruct_2,instruct,0_1.6,1.0,no,952.0,2.0,True,39858,3.0,7,ball,3.0,False,4
0.0,False,23.0,True,True,True,True,True,instruct_7,instruct,0_1.6,2.0,yes,332.0,3.0,True,44556,4.0,8,ball,4.0,False,4
0.0,False,23.0,True,True,True,False,True,instruct_0,instruct,300_1.6,1.0,no,123.0,4.0,True,49592,5.0,9,ball,5.0,False,4
0.0,False,23.0,False,True,True,False,True,instruct_1,instruct,300_1.6,2.0,yes,1335.0,4.0,True,55480,6.0,10,ball,6.0,False,4
0.0,False,23.0,False,True,True,True,True,instruct_3,instruct,0_1.6,2.0,no,454.0,4.0,True,60979,7.0,11,ball,7.0,False,4
0.0,False,23.0,True,True,True,False,True,instruct_5,instruct,300_1.6,2.0,no,514.0,5.0,True,66297,8.0,12,ball,8.0,False,4
1.0,background,23.0,True,True,True,False,True,easy_0,easy,300_1.4,1.0,no,1059.0,1.0,True,78342,1.0,16,ball,9.0,False,4
1.0,background,23.0,False,False,True,False,True,easy_8,easy,300_1.4,1.0,yes,332.0,1.0,True,83596,2.0,17,ball,10.0,False,4
1.0,background,23.0,True,False,True,True,True,easy_14,easy,0_1.4,1.0,yes,719.0,2.0,True,88565,3.0,18,ball,11.0,False,4
1.0,background,23.0,True,False,True,False,True,easy_13,easy,300_1.4,1.0,no,837.0,3.0,True,94415,4.0,19,ball,12.0,False,4
1.0,background,23.0,True,False,True,False,True,easy_12,easy,300_1.4,1.0,no,1314.0,4.0,True,101045,5.0,20,ball,13.0,False,4
1.0,background,23.0,True,False,True,True,True,easy_2,easy,0_1.4,1.0,yes,939.0,5.0,True,106522,6.0,21,ball,14.0,False,4
1.0,background,23.0,True,True,True,True,True,easy_11,easy,0_1.4,1.0,yes,609.0,6.0,True,113062,7.0,22,ball,15.0,False,4
1.0,background,23.0,True,True,True,True,True,easy_3,easy,0_1.4,1.0,yes,978.0,7.0,True,118977,8.0,23,ball,16.0,False,4
1.0,background,23.0,True,True,True,True,True,easy_6,easy,0_1.4,1.0,yes,380.0,8.0,True,124334,9.0,24,ball,17.0,False,4
1.0,background,23.0,True,True,True,True,True,control_4,control,control,0.0,yes,878.0,9.0,True,129900,10.0,25,ball,18.0,False,4
1.0,background,23.0,True,False,True,True,True,easy_10,easy,0_1.4,1.0,yes,714.0,10.0,True,135955,11.0,26,ball,19.0,False,4
1.0,background,23.0,False,True,True,False,True,easy_1,easy,300_1.4,1.0,yes,1572.0,10.0,True,142282,12.0,27,ball,20.0,False,4
1.0,background,23.0,True,True,True,False,True,easy_5,easy,300_1.4,1.0,no,879.0,11.0,True,148449,13.0,28,ball,21.0,False,4
2.0,background,23.0,True,True,True,False,True,easy_8,easy,300_1.4,1.0,no,797.0,1.0,True,167400,1.0,30,ball,22.0,False,4
2.0,background,23.0,True,True,True,False,True,control_1,control,control,0.0,no,636.0,2.0,True,171445,2.0,31,ball,23.0,False,4
2.0,background,23.0,True,True,True,True,True,easy_10,easy,0_1.4,1.0,yes,527.0,3.0,True,177185,3.0,32,ball,24.0,False,4
2.0,background,23.0,True,True,True,True,True,easy_2,easy,0_1.4,1.0,yes,769.0,4.0,True,182073,4.0,33,ball,25.0,False,4
2.0,background,23.0,True,True,True,False,True,standard_4,standard,200_2.2,1.0,no,2212.0,5.0,True,189442,5.0,34,ball,26.0,False,4
2.0,background,23.0,True,True,True,True,True,standard_11,standard,0_2.2,2.0,yes,562.0,6.0,True,195106,6.0,35,ball,27.0,False,4
2.0,background,23.0,True,False,True,True,True,easy_3,easy,0_1.4,1.0,yes,444.0,7.0,True,200344,7.0,36,ball,28.0,False,4
2.0,background,23.0,True,False,True,False,True,standard_17,standard,200_2.2,2.0,no,789.0,8.0,True,206258,8.0,37,ball,29.0,False,4
2.0,background,23.0,False,False,True,True,True,easy_11,easy,0_1.4,1.0,no,486.0,8.0,True,211548,9.0,38,ball,30.0,False,4
2.0,background,23.0,True,True,True,False,True,easy_9,easy,300_1.4,1.0,no,844.0,9.0,True,217275,10.0,39,ball,31.0,False,4
2.0,background,23.0,True,False,True,True,True,easy_7,easy,0_1.4,1.0,yes,1189.0,10.0,True,222829,11.0,40,ball,32.0,False,4
2.0,background,23.0,True,True,True,False,True,easy_4,easy,300_1.4,1.0,no,271.0,11.0,True,227776,12.0,41,ball,33.0,False,4
2.0,background,23.0,False,False,True,True,True,easy_6,easy,0_1.4,1.0,no,828.0,11.0,True,233415,13.0,42,ball,34.0,False,4
3.0,background,23.0,True,False,True,False,True,standard_9,standard,200_2.2,2.0,no,1388.0,1.0,True,251346,1.0,44,ball,35.0,False,4
3.0,background,23.0,False,False,True,False,True,easy_1,easy,300_1.4,1.0,yes,327.0,1.0,True,256580,2.0,45,ball,36.0,False,4
3.0,background,23.0,True,False,True,False,True,standard_16,standard,200_2.2,1.0,no,792.0,2.0,True,262675,3.0,46,ball,37.0,False,4
3.0,background,23.0,True,True,True,False,True,easy_13,easy,300_1.4,1.0,no,583.0,3.0,True,268170,4.0,47,ball,38.0,False,4
3.0,background,23.0,True,True,True,False,True,standard_5,standard,200_2.2,2.0,no,502.0,4.0,True,274325,5.0,48,ball,39.0,False,4
3.0,background,23.0,True,True,True,False,True,standard_12,standard,200_2.2,1.0,no,560.0,5.0,True,280422,6.0,49,ball,40.0,False,4
3.0,background,23.0,True,True,True,False,True,easy_12,easy,300_1.4,1.0,no,81.0,6.0,True,285305,7.0,50,ball,41.0,False,4
3.0,background,23.0,False,False,True,False,True,easy_0,easy,300_1.4,1.0,yes,743.0,6.0,True,291101,8.0,51,ball,42.0,False,4
3.0,background,23.0,True,True,True,True,True,control_6,control,control,0.0,yes,357.0,7.0,True,295306,9.0,52,ball,43.0,False,4
3.0,background,23.0,True,True,True,True,True,easy_14,easy,0_1.4,1.0,yes,1146.0,8.0,True,300496,10.0,53,ball,44.0,False,4
3.0,background,23.0,True,False,True,False,True,easy_5,easy,300_1.4,1.0,no,222.0,9.0,True,305929,11.0,54,ball,45.0,False,4
3.0,background,23.0,False,False,True,True,True,standard_19,standard,0_2.2,2.0,no,303.0,9.0,True,312042,12.0,55,ball,46.0,False,4
3.0,background,23.0,True,True,True,True,True,standard_23,standard,0_2.2,2.0,yes,748.0,10.0,True,318437,13.0,56,ball,47.0,False,4
4.0,background,23.0,True,False,True,False,True,easy_9,easy,300_1.4,1.0,no,1291.0,1.0,True,333432,1.0,58,ball,48.0,False,4
4.0,background,23.0,True,False,True,False,True,standard_20,standard,200_2.2,1.0,no,1645.0,2.0,True,340825,2.0,59,ball,49.0,False,4
4.0,background,23.0,True,True,True,False,True,standard_1,standard,200_2.2,2.0,no,1558.0,3.0,True,347511,3.0,60,ball,50.0,False,4
4.0,background,23.0,False,True,True,False,True,standard_13,standard,200_2.2,2.0,yes,319.0,3.0,True,353489,4.0,61,ball,51.0,False,4
4.0,background,23.0,True,False,True,True,True,standard_15,standard,0_2.2,2.0,yes,939.0,4.0,True,359855,5.0,62,ball,52.0,False,4
4.0,background,23.0,True,True,True,True,True,standard_22,standard,0_2.2,1.0,yes,216.0,5.0,True,366063,6.0,63,ball,53.0,False,4
4.0,background,23.0,False,False,True,False,True,standard_8,standard,200_2.2,1.0,yes,661.0,5.0,True,372589,7.0,64,ball,54.0,False,4
4.0,background,23.0,False,False,True,True,True,standard_7,standard,0_2.2,2.0,no,89.0,5.0,True,378417,8.0,65,ball,55.0,False,4
4.0,background,23.0,True,False,True,False,True,easy_4,easy,300_1.4,1.0,no,135.0,6.0,True,383245,9.0,66,ball,56.0,False,4
4.0,background,23.0,True,True,True,False,True,control_3,control,control,0.0,no,282.0,7.0,True,387805,10.0,67,ball,57.0,False,4
4.0,background,23.0,True,True,True,True,True,standard_10,standard,0_2.2,1.0,yes,371.0,8.0,True,394055,11.0,68,ball,58.0,False,4
4.0,background,23.0,True,True,True,True,True,easy_7,easy,0_1.4,1.0,yes,1027.0,9.0,True,400635,12.0,69,ball,59.0,False,4
4.0,background,23.0,False,False,True,True,True,standard_2,standard,0_2.2,1.0,no,204.0,9.0,True,407861,13.0,70,ball,60.0,False,4
5.0,background,23.0,False,True,True,False,True,control_5,control,control,0.0,yes,273.0,0.0,True,420440,1.0,72,ball,61.0,False,4
5.0,background,23.0,False,False,True,False,True,standard_12,standard,200_2.2,1.0,yes,1283.0,0.0,True,427739,2.0,73,ball,62.0,False,4
5.0,background,23.0,True,False,True,False,True,standard_4,standard,200_2.2,1.0,no,575.0,1.0,True,434134,3.0,74,ball,63.0,False,4
5.0,background,23.0,True,False,True,False,True,standard_21,standard,200_2.2,2.0,no,482.0,2.0,True,440138,4.0,75,ball,64.0,False,4
5.0,background,23.0,True,True,True,False,True,standard_17,standard,200_2.2,2.0,no,878.0,3.0,True,446610,5.0,76,ball,65.0,False,4
5.0,background,23.0,True,True,True,False,True,standard_16,standard,200_2.2,1.0,no,106.0,4.0,True,452348,6.0,77,ball,66.0,False,4
5.0,background,23.0,True,True,True,False,True,standard_0,standard,200_2.2,1.0,no,265.0,5.0,True,458222,7.0,78,ball,67.0,False,4
5.0,background,23.0,True,True,True,True,True,standard_14,standard,0_2.2,1.0,yes,104.0,6.0,True,464122,8.0,79,ball,68.0,False,4
5.0,background,23.0,True,True,True,False,True,standard_9,standard,200_2.2,2.0,no,134.0,7.0,True,469961,9.0,80,ball,69.0,False,4
5.0,background,23.0,True,False,True,True,True,standard_11,standard,0_2.2,2.0,yes,527.0,8.0,True,476064,10.0,81,ball,70.0,False,4
5.0,background,23.0,True,False,True,True,True,standard_3,standard,0_2.2,2.0,yes,20.0,9.0,True,481572,11.0,82,ball,71.0,False,4
5.0,background,23.0,True,False,True,True,True,standard_6,standard,0_2.2,1.0,yes,47.0,10.0,True,487272,12.0,83,ball,72.0,False,4
5.0,background,23.0,True,True,True,True,True,standard_18,standard,0_2.2,1.0,yes,94.0,11.0,True,492944,13.0,84,ball,73.0,False,4
6.0,background,23.0,False,True,True,False,True,control_7,control,control,0.0,yes,215.0,0.0,True,504437,1.0,86,ball,74.0,False,4
6.0,background,23.0,True,True,True,True,True,standard_2,standard,0_2.2,1.0,yes,291.0,1.0,True,510372,2.0,87,ball,75.0,False,4
6.0,background,23.0,True,True,True,True,True,standard_7,standard,0_2.2,2.0,yes,1810.0,2.0,True,518005,3.0,88,ball,76.0,False,4
6.0,background,23.0,True,True,True,True,True,standard_15,standard,0_2.2,2.0,yes,181.0,3.0,True,523981,4.0,89,ball,77.0,False,4
6.0,background,23.0,True,False,True,True,True,standard_23,standard,0_2.2,2.0,yes,157.0,4.0,True,529758,5.0,90,ball,78.0,False,4
6.0,background,23.0,True,True,True,False,True,standard_20,standard,200_2.2,1.0,no,275.0,5.0,True,536136,6.0,91,ball,79.0,False,4
6.0,background,23.0,True,False,True,True,True,hard_11,hard,0_3.2,2.0,yes,209.0,6.0,True,543060,7.0,92,ball,80.0,False,4
6.0,background,23.0,True,False,True,True,True,standard_22,standard,0_2.2,1.0,yes,29.0,7.0,True,548478,8.0,93,ball,81.0,False,4
6.0,background,23.0,False,False,True,False,True,standard_1,standard,200_2.2,2.0,yes,94.0,7.0,True,554245,9.0,94,ball,82.0,False,4
6.0,background,23.0,True,False,True,False,True,standard_5,standard,200_2.2,2.0,no,1134.0,8.0,True,560484,10.0,95,ball,83.0,False,4
6.0,background,23.0,True,True,True,True,True,hard_7,hard,0_3.2,2.0,yes,1125.0,9.0,True,568251,11.0,96,ball,84.0,False,4
6.0,background,23.0,True,True,True,True,True,standard_19,standard,0_2.2,2.0,yes,136.0,10.0,True,574060,12.0,97,ball,85.0,False,4
6.0,background,23.0,True,True,True,True,True,hard_3,hard,0_3.2,2.0,yes,139.0,11.0,True,580943,13.0,98,ball,86.0,False,4
7.0,background,23.0,True,False,True,False,True,hard_9,hard,100_3.2,2.0,no,967.0,1.0,True,595669,1.0,100,ball,87.0,False,4
7.0,background,23.0,False,False,True,True,True,standard_10,standard,0_2.2,1.0,no,168.0,1.0,True,601267,2.0,101,ball,88.0,False,4
7.0,background,23.0,False,False,True,False,True,hard_1,hard,100_3.2,2.0,yes,142.0,1.0,True,608169,3.0,102,ball,89.0,False,4
7.0,background,23.0,False,True,True,True,True,standard_6,standard,0_2.2,1.0,no,167.0,1.0,True,613813,4.0,103,ball,90.0,False,4
7.0,background,23.0,True,True,True,False,True,hard_12,hard,100_3.2,2.0,no,546.0,2.0,True,621031,5.0,104,ball,91.0,False,4
7.0,background,23.0,True,False,True,False,True,standard_13,standard,200_2.2,2.0,no,447.0,3.0,True,627289,6.0,105,ball,92.0,False,4
7.0,background,23.0,True,True,True,False,True,hard_13,hard,100_3.2,2.0,no,397.0,4.0,True,634529,7.0,106,ball,93.0,False,4
7.0,background,23.0,True,True,True,False,True,standard_21,standard,200_2.2,2.0,no,111.0,5.0,True,640000,8.0,107,ball,94.0,False,4
7.0,background,23.0,False,False,True,False,True,standard_0,standard,200_2.2,1.0,yes,425.0,5.0,True,646124,9.0,108,ball,95.0,False,4
7.0,background,23.0,False,True,True,False,True,standard_8,standard,200_2.2,1.0,yes,1212.0,5.0,True,652964,10.0,109,ball,96.0,False,4
7.0,background,23.0,True,True,True,True,True,control_2,control,control,0.0,yes,173.0,6.0,True,657282,11.0,110,ball,97.0,False,4
7.0,background,23.0,True,True,True,True,True,hard_10,hard,0_3.2,2.0,yes,151.0,7.0,True,664362,12.0,111,ball,98.0,False,4
7.0,background,23.0,False,False,True,True,True,hard_6,hard,0_3.2,2.0,no,185.0,7.0,True,671198,13.0,112,ball,99.0,False,4
8.0,background,23.0,True,True,True,True,True,hard_11,hard,0_3.2,2.0,yes,159.0,1.0,True,687774,1.0,114,ball,100.0,False,4
8.0,background,23.0,False,False,True,True,True,hard_3,hard,0_3.2,2.0,no,91.0,1.0,True,695410,2.0,115,ball,101.0,False,4
8.0,background,23.0,True,True,True,True,True,control_0,control,control,0.0,yes,502.0,2.0,True,699752,3.0,116,ball,102.0,False,4
8.0,background,23.0,True,False,True,False,True,hard_8,hard,100_3.2,2.0,no,506.0,3.0,True,706895,4.0,117,ball,103.0,False,4
8.0,background,23.0,True,False,True,False,True,hard_5,hard,100_3.2,2.0,no,678.0,4.0,True,714351,5.0,118,ball,104.0,False,4
8.0,background,23.0,True,False,True,True,True,hard_2,hard,0_3.2,2.0,yes,286.0,5.0,True,721611,6.0,119,ball,105.0,False,4
8.0,background,23.0,False,False,True,True,True,standard_14,standard,0_2.2,1.0,no,59.0,5.0,True,727731,7.0,120,ball,106.0,False,4
8.0,background,23.0,True,True,True,True,True,hard_14,hard,0_3.2,2.0,yes,60.0,6.0,True,734625,8.0,121,ball,107.0,False,4
8.0,background,23.0,False,False,True,True,True,standard_18,standard,0_2.2,1.0,no,118.0,6.0,True,740243,9.0,122,ball,108.0,False,4
8.0,background,23.0,True,True,True,False,True,hard_0,hard,100_3.2,2.0,no,180.0,7.0,True,746958,10.0,123,ball,109.0,False,4
8.0,background,23.0,True,True,True,True,True,standard_3,standard,0_2.2,2.0,yes,38.0,8.0,True,752660,11.0,124,ball,110.0,False,4
8.0,background,23.0,True,True,True,False,True,hard_4,hard,100_3.2,2.0,no,62.0,9.0,True,759280,12.0,125,ball,111.0,False,4
8.0,background,23.0,True,False,True,True,True,hard_7,hard,0_3.2,2.0,yes,58.0,10.0,True,765856,13.0,126,ball,112.0,False,4
9.0,background,23.0,True,False,True,False,True,hard_4,hard,100_3.2,2.0,no,168.0,1.0,True,778309,1.0,128,ball,113.0,False,4
9.0,background,23.0,False,False,True,True,True,hard_14,hard,0_3.2,2.0,no,568.0,1.0,True,785507,2.0,129,ball,114.0,False,4
9.0,background,23.0,True,True,True,False,True,hard_9,hard,100_3.2,2.0,no,417.0,2.0,True,792270,3.0,130,ball,115.0,False,4
9.0,background,23.0,True,True,True,False,True,hard_5,hard,100_3.2,2.0,no,99.0,3.0,True,799466,4.0,131,ball,116.0,False,4
9.0,background,23.0,True,False,True,True,True,hard_10,hard,0_3.2,2.0,yes,74.0,4.0,True,806274,5.0,132,ball,117.0,False,4
9.0,background,23.0,True,True,True,False,True,hard_1,hard,100_3.2,2.0,no,1929.0,5.0,True,814870,6.0,133,ball,118.0,False,4
9.0,background,23.0,True,True,True,False,True,hard_8,hard,100_3.2,2.0,no,46.0,6.0,True,821456,7.0,134,ball,119.0,False,4
9.0,background,23.0,False,False,True,False,True,hard_12,hard,100_3.2,2.0,yes,93.0,6.0,True,828607,8.0,135,ball,120.0,False,4
9.0,background,23.0,True,True,True,True,True,hard_6,hard,0_3.2,2.0,yes,192.0,7.0,True,835278,9.0,136,ball,121.0,False,4
9.0,background,23.0,True,False,True,False,True,hard_0,hard,100_3.2,2.0,no,74.0,8.0,True,841839,10.0,137,ball,122.0,False,4
9.0,background,23.0,True,False,True,False,True,hard_13,hard,100_3.2,2.0,no,37.0,9.0,True,848426,11.0,138,ball,123.0,False,4
9.0,background,23.0,True,True,True,True,True,hard_2,hard,0_3.2,2.0,yes,42.0,10.0,True,855078,12.0,139,ball,124.0,False,4
10.0,background,23.0,True,True,True,False,True,critical_6,critical,100_3.2,2.0,no,225.0,1.0,False,868293,1.0,141,ball,125.0,False,4
10.0,background,23.0,True,True,True,True,True,critical_7,critical,0_3.2,2.0,yes,160.0,2.0,False,872471,2.0,142,ball,126.0,False,4
10.0,background,23.0,True,True,True,False,True,critical_0,critical,100_3.2,2.0,no,42.0,3.0,False,875341,3.0,143,ball,127.0,False,4
10.0,background,23.0,True,True,True,True,True,critical_1,critical,0_3.2,2.0,yes,1331.0,4.0,False,879406,4.0,144,ball,128.0,False,4
10.0,background,23.0,False,True,True,False,False,critical_2,critical,100_3.2,2.0,yes,159.0,4.0,False,882686,5.0,145,ball,129.0,False,4
10.0,background,23.0,True,True,True,True,True,filler_2,filler,0_2.2,1.0,yes,152.0,5.0,False,885727,6.0,146,ball,130.0,False,4
10.0,background,23.0,True,True,True,False,True,filler_5,filler,200_2.2,2.0,no,90.0,6.0,False,888467,7.0,147,ball,131.0,False,4
10.0,background,23.0,False,True,True,True,False,critical_3,critical,0_3.2,2.0,no,66.0,6.0,False,891685,8.0,148,ball,132.0,False,4
10.0,background,23.0,True,True,True,False,True,filler_0,filler,200_2.2,1.0,no,87.0,7.0,False,894639,9.0,149,ball,133.0,False,4
10.0,background,23.0,True,True,True,False,True,filler_4,filler,200_2.2,1.0,no,37.0,8.0,False,897403,10.0,150,ball,134.0,False,4
10.0,background,23.0,False,True,True,False,False,critical_4,critical,100_3.2,2.0,yes,56.0,8.0,False,900341,11.0,151,ball,135.0,False,4
10.0,background,23.0,True,True,True,True,True,filler_3,filler,0_2.2,2.0,yes,68.0,9.0,False,903136,12.0,152,ball,136.0,False,4
10.0,background,23.0,True,True,True,False,True,filler_1,filler,200_2.2,2.0,no,69.0,10.0,False,908476,13.0,153,ball,137.0,False,4
10.0,background,23.0,True,True,True,True,False,critical_5,critical,0_3.2,2.0,yes,401.0,11.0,False,914726,14.0,154,ball,138.0,False,4
0.0,False,11.0,True,True,True,True,True,instruct_7,instruct,0_1.6,2.0,yes,11604.0,1.0,True,297073,1.0,13,ball,1.0,False,5
0.0,False,11.0,False,True,True,False,True,instruct_5,instruct,300_1.6,2.0,yes,3393.0,1.0,True,307005,2.0,14,ball,2.0,False,5
0.0,False,11.0,False,True,True,False,True,instruct_4,instruct,300_1.6,1.0,yes,2093.0,1.0,True,320589,3.0,15,ball,3.0,False,5
0.0,False,11.0,False,True,True,False,True,instruct_1,instruct,300_1.6,2.0,yes,881.0,1.0,True,329152,4.0,16,ball,4.0,False,5
0.0,False,11.0,True,True,True,False,True,instruct_0,instruct,300_1.6,1.0,no,1030.0,2.0,True,336908,5.0,17,ball,5.0,False,5
0.0,False,11.0,False,True,True,True,True,instruct_2,instruct,0_1.6,1.0,no,1077.0,2.0,True,344590,6.0,18,ball,6.0,False,5
0.0,False,11.0,False,True,True,True,True,instruct_3,instruct,0_1.6,2.0,no,1255.0,2.0,True,356781,7.0,19,ball,7.0,False,5
0.0,False,11.0,True,True,True,True,True,instruct_6,instruct,0_1.6,1.0,yes,951.0,3.0,True,362643,8.0,20,ball,8.0,False,5
1.0,background,11.0,True,True,True,True,True,control_4,control,control,0.0,yes,1636.0,1.0,True,388071,1.0,24,ball,9.0,False,5
1.0,background,11.0,True,False,True,True,True,easy_14,easy,0_1.4,1.0,yes,844.0,2.0,True,400745,2.0,25,ball,10.0,False,5
1.0,background,11.0,False,False,True,True,True,easy_3,easy,0_1.4,1.0,no,1038.0,2.0,True,408741,3.0,26,ball,11.0,False,5
1.0,background,11.0,False,True,True,True,True,easy_7,easy,0_1.4,1.0,no,2153.0,2.0,True,419289,4.0,27,ball,12.0,False,5
1.0,background,11.0,True,False,True,True,True,easy_2,easy,0_1.4,1.0,yes,4078.0,3.0,True,430569,5.0,28,ball,13.0,False,5
1.0,background,11.0,False,True,True,False,True,easy_5,easy,300_1.4,1.0,yes,1664.0,3.0,True,439846,6.0,29,ball,14.0,False,5
1.0,background,11.0,True,True,True,False,True,easy_9,easy,300_1.4,1.0,no,1084.0,4.0,True,450255,7.0,30,ball,15.0,False,5
1.0,background,11.0,False,True,True,True,True,easy_11,easy,0_1.4,1.0,no,1249.0,4.0,True,460584,8.0,31,ball,16.0,False,5
1.0,background,11.0,False,True,True,False,True,easy_12,easy,300_1.4,1.0,yes,744.0,4.0,True,466072,9.0,32,ball,17.0,False,5
1.0,background,11.0,False,False,True,False,True,easy_13,easy,300_1.4,1.0,yes,2473.0,4.0,True,473453,10.0,33,ball,18.0,False,5
1.0,background,11.0,False,False,True,False,True,easy_8,easy,300_1.4,1.0,yes,2241.0,4.0,True,480757,11.0,34,ball,19.0,False,5
1.0,background,11.0,True,True,True,False,True,easy_0,easy,300_1.4,1.0,no,1595.0,5.0,True,487088,12.0,35,ball,20.0,False,5
1.0,background,11.0,False,False,True,False,True,easy_4,easy,300_1.4,1.0,yes,2029.0,5.0,True,496373,13.0,36,ball,21.0,False,5
2.0,background,11.0,True,False,True,False,True,easy_12,easy,300_1.4,1.0,no,2104.0,1.0,True,520739,1.0,38,ball,22.0,False,5
2.0,background,11.0,True,False,True,True,True,easy_11,easy,0_1.4,1.0,yes,1764.0,2.0,True,528713,2.0,39,ball,23.0,False,5
2.0,background,11.0,True,False,True,True,True,standard_3,standard,0_2.2,2.0,yes,1099.0,3.0,True,538662,3.0,40,ball,24.0,False,5
2.0,background,11.0,False,True,True,True,True,standard_14,standard,0_2.2,1.0,no,3705.0,3.0,True,551589,4.0,41,ball,25.0,False,5
2.0,background,11.0,True,True,True,False,True,control_3,control,control,0.0,no,5948.0,4.0,True,561391,5.0,42,ball,26.0,False,5
2.0,background,11.0,True,True,True,False,True,easy_1,easy,300_1.4,1.0,no,1755.0,5.0,True,569345,6.0,43,ball,27.0,False,5
2.0,background,11.0,False,True,True,False,True,easy_8,easy,300_1.4,1.0,yes,1519.0,5.0,True,575657,7.0,44,ball,28.0,False,5
2.0,background,11.0,False,False,True,False,True,easy_0,easy,300_1.4,1.0,yes,1722.0,5.0,True,585987,8.0,45,ball,29.0,False,5
2.0,background,11.0,True,True,True,False,True,standard_1,standard,200_2.2,2.0,no,1300.0,6.0,True,592925,9.0,46,ball,30.0,False,5
2.0,background,11.0,True,True,True,True,True,easy_2,easy,0_1.4,1.0,yes,1021.0,7.0,True,599337,10.0,47,ball,31.0,False,5
2.0,background,11.0,True,True,True,True,True,easy_10,easy,0_1.4,1.0,yes,1291.0,8.0,True,605827,11.0,48,ball,32.0,False,5
2.0,background,11.0,False,False,True,True,True,easy_6,easy,0_1.4,1.0,no,1868.0,8.0,True,612790,12.0,49,ball,33.0,False,5
2.0,background,11.0,True,True,True,True,True,easy_3,easy,0_1.4,1.0,yes,1873.0,9.0,True,619245,13.0,50,ball,34.0,False,5
3.0,background,11.0,False,False,True,False,True,easy_9,easy,300_1.4,1.0,yes,3999.0,0.0,True,652903,1.0,52,ball,35.0,False,5
3.0,background,11.0,False,True,True,False,True,standard_4,standard,200_2.2,1.0,yes,1264.0,0.0,True,660649,2.0,53,ball,36.0,False,5
3.0,background,11.0,True,True,True,False,True,control_1,control,control,0.0,no,1151.0,1.0,True,667739,3.0,54,ball,37.0,False,5
3.0,background,11.0,True,False,True,False,True,standard_9,standard,200_2.2,2.0,no,2013.0,2.0,True,677775,4.0,55,ball,38.0,False,5
3.0,background,11.0,True,False,True,False,True,standard_5,standard,200_2.2,2.0,no,1116.0,3.0,True,689307,5.0,56,ball,39.0,False,5
3.0,background,11.0,False,True,True,False,True,standard_17,standard,200_2.2,2.0,yes,2222.0,3.0,True,697153,6.0,57,ball,40.0,False,5
3.0,background,11.0,True,False,True,False,True,easy_5,easy,300_1.4,1.0,no,977.0,4.0,True,702747,7.0,58,ball,41.0,False,5
3.0,background,11.0,True,True,True,True,True,easy_14,easy,0_1.4,1.0,yes,1644.0,5.0,True,709500,8.0,59,ball,42.0,False,5
3.0,background,11.0,True,True,True,True,True,standard_10,standard,0_2.2,1.0,yes,1168.0,6.0,True,716491,9.0,60,ball,43.0,False,5
3.0,background,11.0,False,False,True,True,True,easy_7,easy,0_1.4,1.0,no,1485.0,6.0,True,722906,10.0,61,ball,44.0,False,5
3.0,background,11.0,True,False,True,True,True,standard_23,standard,0_2.2,2.0,yes,1039.0,7.0,True,729495,11.0,62,ball,45.0,False,5
3.0,background,11.0,True,True,True,False,True,easy_13,easy,300_1.4,1.0,no,1083.0,8.0,True,737647,12.0,63,ball,46.0,False,5
3.0,background,11.0,True,True,True,False,True,easy_4,easy,300_1.4,1.0,no,2369.0,9.0,True,745847,13.0,64,ball,47.0,False,5
4.0,background,11.0,True,False,True,True,True,easy_10,easy,0_1.4,1.0,yes,1905.0,1.0,True,767482,1.0,66,ball,48.0,False,5
4.0,background,11.0,False,True,True,True,True,standard_2,standard,0_2.2,1.0,no,1477.0,1.0,True,776743,2.0,67,ball,49.0,False,5
4.0,background,11.0,True,True,True,False,True,standard_21,standard,200_2.2,2.0,no,1723.0,2.0,True,783960,3.0,68,ball,50.0,False,5
4.0,background,11.0,False,False,True,False,True,standard_16,standard,200_2.2,1.0,yes,2145.0,2.0,True,793903,4.0,69,ball,51.0,False,5
4.0,background,11.0,True,False,True,False,True,easy_1,easy,300_1.4,1.0,no,1220.0,3.0,True,799819,5.0,70,ball,52.0,False,5
4.0,background,11.0,True,False,True,True,True,standard_7,standard,0_2.2,2.0,yes,1035.0,4.0,True,807663,6.0,71,ball,53.0,False,5
4.0,background,11.0,True,True,True,True,True,control_0,control,control,0.0,yes,1722.0,5.0,True,813740,7.0,72,ball,54.0,False,5
4.0,background,11.0,True,True,True,True,True,easy_6,easy,0_1.4,1.0,yes,1019.0,6.0,True,821822,8.0,73,ball,55.0,False,5
4.0,background,11.0,True,True,True,True,True,standard_18,standard,0_2.2,1.0,yes,1023.0,7.0,True,829096,9.0,74,ball,56.0,False,5
4.0,background,11.0,True,False,True,False,True,standard_20,standard,200_2.2,1.0,no,3517.0,8.0,True,840769,10.0,75,ball,57.0,False,5
4.0,background,11.0,False,False,True,True,True,standard_15,standard,0_2.2,2.0,no,1105.0,8.0,True,849183,11.0,76,ball,58.0,False,5
4.0,background,11.0,True,True,True,False,True,standard_8,standard,200_2.2,1.0,no,1759.0,9.0,True,857381,12.0,77,ball,59.0,False,5
4.0,background,11.0,False,False,True,False,True,standard_0,standard,200_2.2,1.0,yes,2049.0,9.0,True,864820,13.0,78,ball,60.0,False,5
5.0,background,11.0,True,True,True,True,True,standard_22,standard,0_2.2,1.0,yes,3311.0,1.0,True,884499,1.0,80,ball,61.0,False,5
5.0,background,11.0,False,False,True,True,True,standard_11,standard,0_2.2,2.0,no,2733.0,1.0,True,893030,2.0,81,ball,62.0,False,5
5.0,background,11.0,True,True,True,True,True,standard_23,standard,0_2.2,2.0,yes,1090.0,2.0,True,900079,3.0,82,ball,63.0,False,5
5.0,background,11.0,False,False,True,False,True,standard_12,standard,200_2.2,1.0,yes,1273.0,2.0,True,907757,4.0,83,ball,64.0,False,5
5.0,background,11.0,True,False,True,True,True,standard_14,standard,0_2.2,1.0,yes,4242.0,3.0,True,918955,5.0,84,ball,65.0,False,5
5.0,background,11.0,True,True,True,False,True,standard_9,standard,200_2.2,2.0,no,1723.0,4.0,True,926169,6.0,85,ball,66.0,False,5
5.0,background,11.0,True,True,True,False,True,control_7,control,control,0.0,no,1273.0,5.0,True,933204,7.0,86,ball,67.0,False,5
5.0,background,11.0,False,True,True,False,True,standard_13,standard,200_2.2,2.0,yes,2987.0,5.0,True,942233,8.0,87,ball,68.0,False,5
5.0,background,11.0,True,False,True,True,True,standard_19,standard,0_2.2,2.0,yes,3566.0,6.0,True,951138,9.0,88,ball,69.0,False,5
5.0,background,11.0,True,True,True,True,True,standard_3,standard,0_2.2,2.0,yes,1123.0,7.0,True,957829,10.0,89,ball,70.0,False,5
5.0,background,11.0,False,False,True,False,True,standard_1,standard,200_2.2,2.0,yes,4177.0,7.0,True,967449,11.0,90,ball,71.0,False,5
5.0,background,11.0,True,False,True,True,True,standard_10,standard,0_2.2,1.0,yes,3331.0,8.0,True,976358,12.0,91,ball,72.0,False,5
5.0,background,11.0,True,True,True,True,True,standard_6,standard,0_2.2,1.0,yes,883.0,9.0,True,982728,13.0,92,ball,73.0,False,5
6.0,background,11.0,False,False,True,False,True,standard_17,standard,200_2.2,2.0,yes,1562.0,0.0,True,1097554,1.0,94,ball,74.0,False,5
6.0,background,11.0,False,True,True,False,True,standard_0,standard,200_2.2,1.0,yes,1440.0,0.0,True,1117939,2.0,95,ball,75.0,False,5
6.0,background,11.0,False,False,True,True,True,standard_18,standard,0_2.2,1.0,no,1228.0,0.0,True,1127589,3.0,96,ball,76.0,False,5
6.0,background,11.0,True,True,True,True,True,hard_14,hard,0_3.2,2.0,yes,2301.0,1.0,True,1140196,4.0,97,ball,77.0,False,5
6.0,background,11.0,False,False,True,False,True,standard_4,standard,200_2.2,1.0,yes,3978.0,1.0,True,1154816,5.0,98,ball,78.0,False,5
6.0,background,11.0,True,True,True,False,True,standard_20,standard,200_2.2,1.0,no,2243.0,2.0,True,1163217,6.0,99,ball,79.0,False,5
6.0,background,11.0,True,True,True,True,True,standard_7,standard,0_2.2,2.0,yes,906.0,3.0,True,1169347,7.0,100,ball,80.0,False,5
6.0,background,11.0,False,False,True,True,True,hard_11,hard,0_3.2,2.0,no,2044.0,3.0,True,1183261,8.0,101,ball,81.0,False,5
6.0,background,11.0,False,True,True,False,True,hard_0,hard,100_3.2,2.0,yes,1173.0,3.0,True,1194633,9.0,102,ball,82.0,False,5
6.0,background,11.0,True,True,True,True,True,control_6,control,control,0.0,yes,1070.0,4.0,True,1200359,10.0,103,ball,83.0,False,5
6.0,background,11.0,True,True,True,False,True,standard_5,standard,200_2.2,2.0,no,1791.0,5.0,True,1207576,11.0,104,ball,84.0,False,5
6.0,background,11.0,True,True,True,False,True,standard_16,standard,200_2.2,1.0,no,685.0,6.0,True,1214258,12.0,105,ball,85.0,False,5
6.0,background,11.0,True,False,True,True,True,standard_2,standard,0_2.2,1.0,yes,2810.0,7.0,True,1222741,13.0,106,ball,86.0,False,5
7.0,background,11.0,False,True,True,False,True,hard_9,hard,100_3.2,2.0,yes,2500.0,0.0,True,1247500,1.0,108,ball,87.0,False,5
7.0,background,11.0,True,False,True,False,True,hard_5,hard,100_3.2,2.0,no,3022.0,1.0,True,1259519,2.0,109,ball,88.0,False,5
7.0,background,11.0,True,True,True,True,True,standard_15,standard,0_2.2,2.0,yes,1025.0,2.0,True,1265893,3.0,110,ball,89.0,False,5
7.0,background,11.0,True,True,True,True,True,hard_3,hard,0_3.2,2.0,yes,1009.0,3.0,True,1273741,4.0,111,ball,90.0,False,5
7.0,background,11.0,True,True,True,True,True,standard_11,standard,0_2.2,2.0,yes,424.0,4.0,True,1286285,5.0,112,ball,91.0,False,5
7.0,background,11.0,False,False,True,True,True,standard_22,standard,0_2.2,1.0,no,987.0,4.0,True,1292498,6.0,113,ball,92.0,False,5
7.0,background,11.0,True,True,True,True,True,standard_19,standard,0_2.2,2.0,yes,555.0,5.0,True,1298550,7.0,114,ball,93.0,False,5
7.0,background,11.0,True,True,True,False,True,control_5,control,control,0.0,no,384.0,6.0,True,1302488,8.0,115,ball,94.0,False,5
7.0,background,11.0,False,False,True,False,True,standard_8,standard,200_2.2,1.0,yes,2496.0,6.0,True,1310222,9.0,116,ball,95.0,False,5
7.0,background,11.0,True,False,True,False,True,standard_21,standard,200_2.2,2.0,no,1257.0,7.0,True,1319978,10.0,117,ball,96.0,False,5
7.0,background,11.0,True,False,True,False,True,hard_13,hard,100_3.2,2.0,no,1662.0,8.0,True,1330202,11.0,118,ball,97.0,False,5
7.0,background,11.0,True,False,True,False,True,hard_1,hard,100_3.2,2.0,no,884.0,9.0,True,1337910,12.0,119,ball,98.0,False,5
7.0,background,11.0,True,True,True,False,True,hard_8,hard,100_3.2,2.0,no,2103.0,10.0,True,1346726,13.0,120,ball,99.0,False,5
8.0,background,11.0,False,False,True,True,True,hard_7,hard,0_3.2,2.0,no,1038.0,0.0,True,1368030,1.0,122,ball,100.0,False,5
8.0,background,11.0,True,True,True,False,True,standard_12,standard,200_2.2,1.0,no,1356.0,1.0,True,1377182,2.0,123,ball,101.0,False,5
