correct,questions,responses,rt,time_elapsed,trial_index,trial_type,pid
"[False, False, True]","[""Which key should you press if you think the ball\nwill bounce off the back wall and then fly through\nthe hole in the center wall?"",""Which key should you press if you think the ball will\nbounce off the center wall, then the back wall,\nand then fly through the hole in the center wall?"",""What color is Player B's court?""]","[""p (no)"",""q (yes)"",""blue""]",18488.0,105108,3,survey-multi-choice,0
"[True, True, True]","[""Which key should you press if you think the ball\nwill bounce off the back wall and then fly through\nthe hole in the center wall?"",""Which key should you press if you think the ball will\nbounce off the center wall, then the back wall,\nand then fly through the hole in the center wall?"",""What color is Player B's court?""]","[""q (yes)"",""p (no)"",""blue""]",6881.0,130392,5,survey-multi-choice,0
"[True, False, False]","[""Which player is trying to get the ball <b>into</b> the hole?"",""Which player is trying to <b>avoid</b> the hole?"",""How confident are you in your response to the previous two questions?""]","[""<span style='color: #4C4FE1'><b>Player B</b></span>"",""<span style='color: #53BA42'><b>Player G</b></span>"",""not at all""]",12703.0,317442,31,survey-multi-choice,0
"[True, True, True]","[""Which player is trying to get the ball <b>into</b> the hole?"",""Which player is trying to <b>avoid</b> the hole?"",""How confident are you in your response to the previous two questions?""]","[""<span style='color: #4C4FE1'><b>Player B</b></span>"",""<span style='color: #E3B643'><b>Player Y</b></span>"",""certain""]",5850.0,408767,45,survey-multi-choice,0
"[True, True, True]","[""Which player is trying to get the ball <b>into</b> the hole?"",""Which player is trying to <b>avoid</b> the hole?"",""How confident are you in your response to the previous two questions?""]","[""<span style='color: #4C4FE1'><b>Player B</b></span>"",""<span style='color: #E3B643'><b>Player Y</b></span>"",""certain""]",3989.0,499686,59,survey-multi-choice,0
"[True, True, True]","[""Which player is trying to get the ball <b>into</b> the hole?"",""Which player is trying to <b>avoid</b> the hole?"",""How confident are you in your response to the previous two questions?""]","[""<span style='color: #4C4FE1'><b>Player B</b></span>"",""<span style='color: #E3B643'><b>Player Y</b></span>"",""certain""]",3780.0,581131,73,survey-multi-choice,0
"[True, True, True]","[""Which player is trying to get the ball <b>into</b> the hole?"",""Which player is trying to <b>avoid</b> the hole?"",""How confident are you in your response to the previous two questions?""]","[""<span style='color: #4C4FE1'><b>Player B</b></span>"",""<span style='color: #E3B643'><b>Player Y</b></span>"",""certain""]",4435.0,665989,87,survey-multi-choice,0
"[True, True, True]","[""Which player is trying to get the ball <b>into</b> the hole?"",""Which player is trying to <b>avoid</b> the hole?"",""How confident are you in your response to the previous two questions?""]","[""<span style='color: #4C4FE1'><b>Player B</b></span>"",""<span style='color: #E3B643'><b>Player Y</b></span>"",""certain""]",4629.0,746433,101,survey-multi-choice,0
"[True, True, True]","[""Which player is trying to get the ball <b>into</b> the hole?"",""Which player is trying to <b>avoid</b> the hole?"",""How confident are you in your response to the previous two questions?""]","[""<span style='color: #4C4FE1'><b>Player B</b></span>"",""<span style='color: #E3B643'><b>Player Y</b></span>"",""certain""]",3529.0,829194,115,survey-multi-choice,0
"[True, True, True]","[""Which player is trying to get the ball <b>into</b> the hole?"",""Which player is trying to <b>avoid</b> the hole?"",""How confident are you in your response to the previous two questions?""]","[""<span style='color: #4C4FE1'><b>Player B</b></span>"",""<span style='color: #E3B643'><b>Player Y</b></span>"",""certain""]",3974.0,964275,129,survey-multi-choice,0
"[True, True, True]","[""Which player is trying to get the ball <b>into</b> the hole?"",""Which player is trying to <b>avoid</b> the hole?"",""How confident are you in your response to the previous two questions?""]","[""<span style='color: #4C4FE1'><b>Player B</b></span>"",""<span style='color: #E3B643'><b>Player Y</b></span>"",""certain""]",3993.0,1056599,142,survey-multi-choice,0
"[True, True, True]","[""Which player is trying to get the ball <b>into</b> the hole?"",""Which player is trying to <b>avoid</b> the hole?"",""How confident are you in your response to the previous two questions?""]","[""<span style='color: #4C4FE1'><b>Player B</b></span>"",""<span style='color: #E3B643'><b>Player Y</b></span>"",""certain""]",7219.0,1111354,157,survey-multi-choice,0
"[True, False, True]","[""Which key should you press if you think the ball\nwill bounce off the back wall and then fly through\nthe hole in the center wall?"",""Which key should you press if you think the ball will\nbounce off the center wall, then the back wall,\nand then fly through the hole in the center wall?"",""What color is Player B's court?""]","[""q (yes)"",""q (yes)"",""blue""]",21439.0,71000,3,survey-multi-choice,1
"[True, True, True]","[""Which key should you press if you think the ball\nwill bounce off the back wall and then fly through\nthe hole in the center wall?"",""Which key should you press if you think the ball will\nbounce off the center wall, then the back wall,\nand then fly through the hole in the center wall?"",""What color is Player B's court?""]","[""q (yes)"",""p (no)"",""blue""]",6809.0,109570,5,survey-multi-choice,1
"[False, True, False]","[""Which player is trying to get the ball <b>into</b> the hole?"",""Which player is trying to <b>avoid</b> the hole?"",""How confident are you in your response to the previous two questions?""]","[""<span style='color: #4C4FE1'><b>Player B</b></span>"",""<span style='color: #53BA42'><b>Player G</b></span>"",""a little""]",50873.0,459086,31,survey-multi-choice,1
"[False, True, False]","[""Which player is trying to get the ball <b>into</b> the hole?"",""Which player is trying to <b>avoid</b> the hole?"",""How confident are you in your response to the previous two questions?""]","[""<span style='color: #4C4FE1'><b>Player B</b></span>"",""<span style='color: #53BA42'><b>Player G</b></span>"",""not at all""]",27153.0,689375,45,survey-multi-choice,1
"[True, True, False]","[""Which player is trying to get the ball <b>into</b> the hole?"",""Which player is trying to <b>avoid</b> the hole?"",""How confident are you in your response to the previous two questions?""]","[""<span style='color: #E3B643'><b>Player Y</b></span>"",""<span style='color: #53BA42'><b>Player G</b></span>"",""very""]",10349.0,823438,59,survey-multi-choice,1
"[True, True, True]","[""Which player is trying to get the ball <b>into</b> the hole?"",""Which player is trying to <b>avoid</b> the hole?"",""How confident are you in your response to the previous two questions?""]","[""<span style='color: #E3B643'><b>Player Y</b></span>"",""<span style='color: #53BA42'><b>Player G</b></span>"",""certain""]",7403.0,922925,73,survey-multi-choice,1
"[True, True, True]","[""Which player is trying to get the ball <b>into</b> the hole?"",""Which player is trying to <b>avoid</b> the hole?"",""How confident are you in your response to the previous two questions?""]","[""<span style='color: #E3B643'><b>Player Y</b></span>"",""<span style='color: #53BA42'><b>Player G</b></span>"",""certain""]",7583.0,1040016,87,survey-multi-choice,1
"[True, True, True]","[""Which player is trying to get the ball <b>into</b> the hole?"",""Which player is trying to <b>avoid</b> the hole?"",""How confident are you in your response to the previous two questions?""]","[""<span style='color: #E3B643'><b>Player Y</b></span>"",""<span style='color: #53BA42'><b>Player G</b></span>"",""certain""]",8179.0,1173446,101,survey-multi-choice,1
"[True, True, True]","[""Which player is trying to get the ball <b>into</b> the hole?"",""Which player is trying to <b>avoid</b> the hole?"",""How confident are you in your response to the previous two questions?""]","[""<span style='color: #E3B643'><b>Player Y</b></span>"",""<span style='color: #53BA42'><b>Player G</b></span>"",""certain""]",8622.0,1276400,115,survey-multi-choice,1
"[True, True, True]","[""Which player is trying to get the ball <b>into</b> the hole?"",""Which player is trying to <b>avoid</b> the hole?"",""How confident are you in your response to the previous two questions?""]","[""<span style='color: #E3B643'><b>Player Y</b></span>"",""<span style='color: #53BA42'><b>Player G</b></span>"",""certain""]",10353.0,2011013,129,survey-multi-choice,1
"[True, True, True]","[""Which player is trying to get the ball <b>into</b> the hole?"",""Which player is trying to <b>avoid</b> the hole?"",""How confident are you in your response to the previous two questions?""]","[""<span style='color: #E3B643'><b>Player Y</b></span>"",""<span style='color: #53BA42'><b>Player G</b></span>"",""certain""]",24568.0,2168306,142,survey-multi-choice,1
"[True, True, False]","[""Which player is trying to get the ball <b>into</b> the hole?"",""Which player is trying to <b>avoid</b> the hole?"",""How confident are you in your response to the previous two questions?""]","[""<span style='color: #E3B643'><b>Player Y</b></span>"",""<span style='color: #53BA42'><b>Player G</b></span>"",""somewhat""]",21679.0,2259695,157,survey-multi-choice,1
"[True, True, True]","[""Which key should you press if you think the ball\nwill bounce off the back wall and then fly through\nthe hole in the center wall?"",""Which key should you press if you think the ball will\nbounce off the center wall, then the back wall,\nand then fly through the hole in the center wall?"",""What color is Player B's court?""]","[""q (yes)"",""p (no)"",""blue""]",20619.0,88864,3,survey-multi-choice,2
"[False, False, False]","[""Which player is trying to get the ball <b>into</b> the hole?"",""Which player is trying to <b>avoid</b> the hole?"",""How confident are you in your response to the previous two questions?""]","[""<span style='color: #53BA42'><b>Player G</b></span>"",""<span style='color: #E3B643'><b>Player Y</b></span>"",""not at all""]",16437.0,282707,29,survey-multi-choice,2
"[True, False, False]","[""Which player is trying to get the ball <b>into</b> the hole?"",""Which player is trying to <b>avoid</b> the hole?"",""How confident are you in your response to the previous two questions?""]","[""<span style='color: #E3B643'><b>Player Y</b></span>"",""<span style='color: #4C4FE1'><b>Player B</b></span>"",""somewhat""]",7790.0,378266,43,survey-multi-choice,2
"[True, True, False]","[""Which player is trying to get the ball <b>into</b> the hole?"",""Which player is trying to <b>avoid</b> the hole?"",""How confident are you in your response to the previous two questions?""]","[""<span style='color: #E3B643'><b>Player Y</b></span>"",""<span style='color: #53BA42'><b>Player G</b></span>"",""a little""]",8481.0,453289,57,survey-multi-choice,2
"[True, True, False]","[""Which player is trying to get the ball <b>into</b> the hole?"",""Which player is trying to <b>avoid</b> the hole?"",""How confident are you in your response to the previous two questions?""]","[""<span style='color: #E3B643'><b>Player Y</b></span>"",""<span style='color: #53BA42'><b>Player G</b></span>"",""somewhat""]",8940.0,514297,71,survey-multi-choice,2
"[False, True, False]","[""Which player is trying to get the ball <b>into</b> the hole?"",""Which player is trying to <b>avoid</b> the hole?"",""How confident are you in your response to the previous two questions?""]","[""<span style='color: #4C4FE1'><b>Player B</b></span>"",""<span style='color: #53BA42'><b>Player G</b></span>"",""a little""]",7370.0,577765,85,survey-multi-choice,2
"[False, False, False]","[""Which player is trying to get the ball <b>into</b> the hole?"",""Which player is trying to <b>avoid</b> the hole?"",""How confident are you in your response to the previous two questions?""]","[""<span style='color: #4C4FE1'><b>Player B</b></span>"",""<span style='color: #E3B643'><b>Player Y</b></span>"",""not at all""]",8808.0,641204,99,survey-multi-choice,2
"[True, False, False]","[""Which player is trying to get the ball <b>into</b> the hole?"",""Which player is trying to <b>avoid</b> the hole?"",""How confident are you in your response to the previous two questions?""]","[""<span style='color: #E3B643'><b>Player Y</b></span>"",""<span style='color: #4C4FE1'><b>Player B</b></span>"",""a little""]",10789.0,699461,113,survey-multi-choice,2
"[False, True, False]","[""Which player is trying to get the ball <b>into</b> the hole?"",""Which player is trying to <b>avoid</b> the hole?"",""How confident are you in your response to the previous two questions?""]","[""<span style='color: #4C4FE1'><b>Player B</b></span>"",""<span style='color: #53BA42'><b>Player G</b></span>"",""a little""]",10051.0,764352,127,survey-multi-choice,2
"[True, False, False]","[""Which player is trying to get the ball <b>into</b> the hole?"",""Which player is trying to <b>avoid</b> the hole?"",""How confident are you in your response to the previous two questions?""]","[""<span style='color: #E3B643'><b>Player Y</b></span>"",""<span style='color: #4C4FE1'><b>Player B</b></span>"",""a little""]",6774.0,818910,140,survey-multi-choice,2
"[True, True, False]","[""Which player is trying to get the ball <b>into</b> the hole?"",""Which player is trying to <b>avoid</b> the hole?"",""How confident are you in your response to the previous two questions?""]","[""<span style='color: #E3B643'><b>Player Y</b></span>"",""<span style='color: #53BA42'><b>Player G</b></span>"",""a little""]",7982.0,900898,155,survey-multi-choice,2
"[True, True, True]","[""Which key should you press if you think the ball\nwill bounce off the back wall and then fly through\nthe hole in the center wall?"",""Which key should you press if you think the ball will\nbounce off the center wall, then the back wall,\nand then fly through the hole in the center wall?"",""What color is Player B's court?""]","[""q (yes)"",""p (no)"",""blue""]",58016.0,171267,3,survey-multi-choice,3
"[False, False, False]","[""Which player is trying to get the ball <b>into</b> the hole?"",""Which player is trying to <b>avoid</b> the hole?"",""How confident are you in your response to the previous two questions?""]","[""<span style='color: #53BA42'><b>Player G</b></span>"",""<span style='color: #4C4FE1'><b>Player B</b></span>"",""somewhat""]",30987.0,432118,29,survey-multi-choice,3
"[True, True, False]","[""Which player is trying to get the ball <b>into</b> the hole?"",""Which player is trying to <b>avoid</b> the hole?"",""How confident are you in your response to the previous two questions?""]","[""<span style='color: #4C4FE1'><b>Player B</b></span>"",""<span style='color: #E3B643'><b>Player Y</b></span>"",""very""]",9432.0,549610,43,survey-multi-choice,3
"[True, True, False]","[""Which player is trying to get the ball <b>into</b> the hole?"",""Which player is trying to <b>avoid</b> the hole?"",""How confident are you in your response to the previous two questions?""]","[""<span style='color: #4C4FE1'><b>Player B</b></span>"",""<span style='color: #E3B643'><b>Player Y</b></span>"",""somewhat""]",34403.0,775424,57,survey-multi-choice,3
"[True, True, False]","[""Which player is trying to get the ball <b>into</b> the hole?"",""Which player is trying to <b>avoid</b> the hole?"",""How confident are you in your response to the previous two questions?""]","[""<span style='color: #4C4FE1'><b>Player B</b></span>"",""<span style='color: #E3B643'><b>Player Y</b></span>"",""a little""]",17412.0,897034,71,survey-multi-choice,3
"[False, True, False]","[""Which player is trying to get the ball <b>into</b> the hole?"",""Which player is trying to <b>avoid</b> the hole?"",""How confident are you in your response to the previous two questions?""]","[""<span style='color: #53BA42'><b>Player G</b></span>"",""<span style='color: #E3B643'><b>Player Y</b></span>"",""a little""]",10971.0,1008423,85,survey-multi-choice,3
"[False, True, False]","[""Which player is trying to get the ball <b>into</b> the hole?"",""Which player is trying to <b>avoid</b> the hole?"",""How confident are you in your response to the previous two questions?""]","[""<span style='color: #53BA42'><b>Player G</b></span>"",""<span style='color: #E3B643'><b>Player Y</b></span>"",""somewhat""]",21897.0,1125398,99,survey-multi-choice,3
"[True, True, False]","[""Which player is trying to get the ball <b>into</b> the hole?"",""Which player is trying to <b>avoid</b> the hole?"",""How confident are you in your response to the previous two questions?""]","[""<span style='color: #4C4FE1'><b>Player B</b></span>"",""<span style='color: #E3B643'><b>Player Y</b></span>"",""a little""]",9573.0,1232395,113,survey-multi-choice,3
"[False, True, False]","[""Which player is trying to get the ball <b>into</b> the hole?"",""Which player is trying to <b>avoid</b> the hole?"",""How confident are you in your response to the previous two questions?""]","[""<span style='color: #53BA42'><b>Player G</b></span>"",""<span style='color: #E3B643'><b>Player Y</b></span>"",""a little""]",22240.0,1365347,127,survey-multi-choice,3
"[False, True, False]","[""Which player is trying to get the ball <b>into</b> the hole?"",""Which player is trying to <b>avoid</b> the hole?"",""How confident are you in your response to the previous two questions?""]","[""<span style='color: #53BA42'><b>Player G</b></span>"",""<span style='color: #E3B643'><b>Player Y</b></span>"",""very""]",9340.0,1472220,140,survey-multi-choice,3
"[False, False, False]","[""Which player is trying to get the ball <b>into</b> the hole?"",""Which player is trying to <b>avoid</b> the hole?"",""How confident are you in your response to the previous two questions?""]","[""<span style='color: #E3B643'><b>Player Y</b></span>"",""<span style='color: #53BA42'><b>Player G</b></span>"",""somewhat""]",12769.0,1540654,155,survey-multi-choice,3
"[True, True, True]","[""Which key should you press if you think the ball\nwill bounce off the back wall and then fly through\nthe hole in the center wall?"",""Which key should you press if you think the ball will\nbounce off the center wall, then the back wall,\nand then fly through the hole in the center wall?"",""What color is Player B's court?""]","[""q (yes)"",""p (no)"",""blue""]",9416.0,18372,3,survey-multi-choice,4
"[True, True, False]","[""Which player is trying to get the ball <b>into</b> the hole?"",""Which player is trying to <b>avoid</b> the hole?"",""How confident are you in your response to the previous two questions?""]","[""<span style='color: #E3B643'><b>Player Y</b></span>"",""<span style='color: #53BA42'><b>Player G</b></span>"",""somewhat""]",11924.0,161396,29,survey-multi-choice,4
"[True, True, False]","[""Which player is trying to get the ball <b>into</b> the hole?"",""Which player is trying to <b>avoid</b> the hole?"",""How confident are you in your response to the previous two questions?""]","[""<span style='color: #E3B643'><b>Player Y</b></span>"",""<span style='color: #53BA42'><b>Player G</b></span>"",""very""]",9813.0,244250,43,survey-multi-choice,4
"[True, True, False]","[""Which player is trying to get the ball <b>into</b> the hole?"",""Which player is trying to <b>avoid</b> the hole?"",""How confident are you in your response to the previous two questions?""]","[""<span style='color: #E3B643'><b>Player Y</b></span>"",""<span style='color: #53BA42'><b>Player G</b></span>"",""very""]",6816.0,326275,57,survey-multi-choice,4
"[True, True, False]","[""Which player is trying to get the ball <b>into</b> the hole?"",""Which player is trying to <b>avoid</b> the hole?"",""How confident are you in your response to the previous two questions?""]","[""<span style='color: #E3B643'><b>Player Y</b></span>"",""<span style='color: #53BA42'><b>Player G</b></span>"",""very""]",6878.0,415764,71,survey-multi-choice,4
"[True, True, False]","[""Which player is trying to get the ball <b>into</b> the hole?"",""Which player is trying to <b>avoid</b> the hole?"",""How confident are you in your response to the previous two questions?""]","[""<span style='color: #E3B643'><b>Player Y</b></span>"",""<span style='color: #53BA42'><b>Player G</b></span>"",""very""]",6222.0,500187,85,survey-multi-choice,4
"[True, True, False]","[""Which player is trying to get the ball <b>into</b> the hole?"",""Which player is trying to <b>avoid</b> the hole?"",""How confident are you in your response to the previous two questions?""]","[""<span style='color: #E3B643'><b>Player Y</b></span>"",""<span style='color: #53BA42'><b>Player G</b></span>"",""very""]",5167.0,587131,99,survey-multi-choice,4
"[True, True, False]","[""Which player is trying to get the ball <b>into</b> the hole?"",""Which player is trying to <b>avoid</b> the hole?"",""How confident are you in your response to the previous two questions?""]","[""<span style='color: #E3B643'><b>Player Y</b></span>"",""<span style='color: #53BA42'><b>Player G</b></span>"",""very""]",7841.0,680060,113,survey-multi-choice,4
"[True, True, False]","[""Which player is trying to get the ball <b>into</b> the hole?"",""Which player is trying to <b>avoid</b> the hole?"",""How confident are you in your response to the previous two questions?""]","[""<span style='color: #E3B643'><b>Player Y</b></span>"",""<span style='color: #53BA42'><b>Player G</b></span>"",""very""]",4546.0,771434,127,survey-multi-choice,4
"[True, True, False]","[""Which player is trying to get the ball <b>into</b> the hole?"",""Which player is trying to <b>avoid</b> the hole?"",""How confident are you in your response to the previous two questions?""]","[""<span style='color: #E3B643'><b>Player Y</b></span>"",""<span style='color: #53BA42'><b>Player G</b></span>"",""very""]",5380.0,861482,140,survey-multi-choice,4
"[True, True, False]","[""Which player is trying to get the ball <b>into</b> the hole?"",""Which player is trying to <b>avoid</b> the hole?"",""How confident are you in your response to the previous two questions?""]","[""<span style='color: #E3B643'><b>Player Y</b></span>"",""<span style='color: #53BA42'><b>Player G</b></span>"",""very""]",5232.0,920979,155,survey-multi-choice,4
"[False, False, True]","[""Which key should you press if you think the ball\nwill bounce off the back wall and then fly through\nthe hole in the center wall?"",""Which key should you press if you think the ball will\nbounce off the center wall, then the back wall,\nand then fly through the hole in the center wall?"",""What color is Player B's court?""]","[""p (no)"",""q (yes)"",""blue""]",27025.0,74013,3,survey-multi-choice,5
"[False, False, True]","[""Which key should you press if you think the ball\nwill bounce off the back wall and then fly through\nthe hole in the center wall?"",""Which key should you press if you think the ball will\nbounce off the center wall, then the back wall,\nand then fly through the hole in the center wall?"",""What color is Player B's court?""]","[""p (no)"",""q (yes)"",""blue""]",12480.0,132205,5,survey-multi-choice,5
"[False, False, True]","[""Which key should you press if you think the ball\nwill bounce off the back wall and then fly through\nthe hole in the center wall?"",""Which key should you press if you think the ball will\nbounce off the center wall, then the back wall,\nand then fly through the hole in the center wall?"",""What color is Player B's court?""]","[""p (no)"",""q (yes)"",""blue""]",13354.0,158891,7,survey-multi-choice,5
"[True, False, True]","[""Which key should you press if you think the ball\nwill bounce off the back wall and then fly through\nthe hole in the center wall?"",""Which key should you press if you think the ball will\nbounce off the center wall, then the back wall,\nand then fly through the hole in the center wall?"",""What color is Player B's court?""]","[""q (yes)"",""q (yes)"",""blue""]",22077.0,217764,9,survey-multi-choice,5
"[True, True, True]","[""Which key should you press if you think the ball\nwill bounce off the back wall and then fly through\nthe hole in the center wall?"",""Which key should you press if you think the ball will\nbounce off the center wall, then the back wall,\nand then fly through the hole in the center wall?"",""What color is Player B's court?""]","[""q (yes)"",""p (no)"",""blue""]",16199.0,260940,11,survey-multi-choice,5
"[False, False, False]","[""Which player is trying to get the ball <b>into</b> the hole?"",""Which player is trying to <b>avoid</b> the hole?"",""How confident are you in your response to the previous two questions?""]","[""<span style='color: #53BA42'><b>Player G</b></span>"",""<span style='color: #E3B643'><b>Player Y</b></span>"",""very""]",14091.0,511531,37,survey-multi-choice,5
"[False, False, False]","[""Which player is trying to get the ball <b>into</b> the hole?"",""Which player is trying to <b>avoid</b> the hole?"",""How confident are you in your response to the previous two questions?""]","[""<span style='color: #53BA42'><b>Player G</b></span>"",""<span style='color: #4C4FE1'><b>Player B</b></span>"",""very""]",15011.0,635298,51,survey-multi-choice,5
"[True, False, False]","[""Which player is trying to get the ball <b>into</b> the hole?"",""Which player is trying to <b>avoid</b> the hole?"",""How confident are you in your response to the previous two questions?""]","[""<span style='color: #E3B643'><b>Player Y</b></span>"",""<span style='color: #4C4FE1'><b>Player B</b></span>"",""very""]",13520.0,760437,65,survey-multi-choice,5
"[True, True, False]","[""Which player is trying to get the ball <b>into</b> the hole?"",""Which player is trying to <b>avoid</b> the hole?"",""How confident are you in your response to the previous two questions?""]","[""<span style='color: #E3B643'><b>Player Y</b></span>"",""<span style='color: #53BA42'><b>Player G</b></span>"",""very""]",8994.0,874848,79,survey-multi-choice,5
"[True, True, False]","[""Which player is trying to get the ball <b>into</b> the hole?"",""Which player is trying to <b>avoid</b> the hole?"",""How confident are you in your response to the previous two questions?""]","[""<span style='color: #E3B643'><b>Player Y</b></span>"",""<span style='color: #53BA42'><b>Player G</b></span>"",""very""]",8718.0,992514,93,survey-multi-choice,5
"[False, True, False]","[""Which player is trying to get the ball <b>into</b> the hole?"",""Which player is trying to <b>avoid</b> the hole?"",""How confident are you in your response to the previous two questions?""]","[""<span style='color: #4C4FE1'><b>Player B</b></span>"",""<span style='color: #53BA42'><b>Player G</b></span>"",""very""]",6722.0,1230568,107,survey-multi-choice,5
"[False, True, False]","[""Which player is trying to get the ball <b>into</b> the hole?"",""Which player is trying to <b>avoid</b> the hole?"",""How confident are you in your response to the previous two questions?""]","[""<span style='color: #4C4FE1'><b>Player B</b></span>"",""<span style='color: #53BA42'><b>Player G</b></span>"",""very""]",12482.0,1360278,121,survey-multi-choice,5
"[True, True, False]","[""Which player is trying to get the ball <b>into</b> the hole?"",""Which player is trying to <b>avoid</b> the hole?"",""How confident are you in your response to the previous two questions?""]","[""<span style='color: #E3B643'><b>Player Y</b></span>"",""<span style='color: #53BA42'><b>Player G</b></span>"",""very""]",5655.0,1499973,135,survey-multi-choice,5
"[False, True, False]","[""Which player is trying to get the ball <b>into</b> the hole?"",""Which player is trying to <b>avoid</b> the hole?"",""How confident are you in your response to the previous two questions?""]","[""<span style='color: #4C4FE1'><b>Player B</b></span>"",""<span style='color: #53BA42'><b>Player G</b></span>"",""very""]",5145.0,1652899,148,survey-multi-choice,5
"[False, True, False]","[""Which player is trying to get the ball <b>into</b> the hole?"",""Which player is trying to <b>avoid</b> the hole?"",""How confident are you in your response to the previous two questions?""]","[""<span style='color: #4C4FE1'><b>Player B</b></span>"",""<span style='color: #53BA42'><b>Player G</b></span>"",""very""]",13527.0,1767421,163,survey-multi-choice,5
"[True, True, True]","[""Which key should you press if you think the ball\nwill bounce off the back wall and then fly through\nthe hole in the center wall?"",""Which key should you press if you think the ball will\nbounce off the center wall, then the back wall,\nand then fly through the hole in the center wall?"",""What color is Player B's court?""]","[""q (yes)"",""p (no)"",""blue""]",119560.0,402117,3,survey-multi-choice,6
"[True, True, False]","[""Which player is trying to get the ball <b>into</b> the hole?"",""Which player is trying to <b>avoid</b> the hole?"",""How confident are you in your response to the previous two questions?""]","[""<span style='color: #E3B643'><b>Player Y</b></span>"",""<span style='color: #53BA42'><b>Player G</b></span>"",""very""]",21744.0,786923,29,survey-multi-choice,6
"[False, True, False]","[""Which player is trying to get the ball <b>into</b> the hole?"",""Which player is trying to <b>avoid</b> the hole?"",""How confident are you in your response to the previous two questions?""]","[""<span style='color: #4C4FE1'><b>Player B</b></span>"",""<span style='color: #53BA42'><b>Player G</b></span>"",""not at all""]",24918.0,931867,43,survey-multi-choice,6
"[True, True, False]","[""Which player is trying to get the ball <b>into</b> the hole?"",""Which player is trying to <b>avoid</b> the hole?"",""How confident are you in your response to the previous two questions?""]","[""<span style='color: #E3B643'><b>Player Y</b></span>"",""<span style='color: #53BA42'><b>Player G</b></span>"",""somewhat""]",17715.0,1050369,57,survey-multi-choice,6
"[True, True, False]","[""Which player is trying to get the ball <b>into</b> the hole?"",""Which player is trying to <b>avoid</b> the hole?"",""How confident are you in your response to the previous two questions?""]","[""<span style='color: #E3B643'><b>Player Y</b></span>"",""<span style='color: #53BA42'><b>Player G</b></span>"",""a little""]",15864.0,1169626,71,survey-multi-choice,6
"[False, True, False]","[""Which player is trying to get the ball <b>into</b> the hole?"",""Which player is trying to <b>avoid</b> the hole?"",""How confident are you in your response to the previous two questions?""]","[""<span style='color: #4C4FE1'><b>Player B</b></span>"",""<span style='color: #53BA42'><b>Player G</b></span>"",""a little""]",12253.0,1295162,85,survey-multi-choice,6
"[False, False, False]","[""Which player is trying to get the ball <b>into</b> the hole?"",""Which player is trying to <b>avoid</b> the hole?"",""How confident are you in your response to the previous two questions?""]","[""<span style='color: #53BA42'><b>Player G</b></span>"",""<span style='color: #4C4FE1'><b>Player B</b></span>"",""not at all""]",20305.0,1417242,99,survey-multi-choice,6
"[False, False, False]","[""Which player is trying to get the ball <b>into</b> the hole?"",""Which player is trying to <b>avoid</b> the hole?"",""How confident are you in your response to the previous two questions?""]","[""<span style='color: #53BA42'><b>Player G</b></span>"",""<span style='color: #E3B643'><b>Player Y</b></span>"",""not at all""]",16920.0,1544967,113,survey-multi-choice,6
"[False, True, False]","[""Which player is trying to get the ball <b>into</b> the hole?"",""Which player is trying to <b>avoid</b> the hole?"",""How confident are you in your response to the previous two questions?""]","[""<span style='color: #4C4FE1'><b>Player B</b></span>"",""<span style='color: #53BA42'><b>Player G</b></span>"",""a little""]",15113.0,1671105,127,survey-multi-choice,6
"[True, True, False]","[""Which player is trying to get the ball <b>into</b> the hole?"",""Which player is trying to <b>avoid</b> the hole?"",""How confident are you in your response to the previous two questions?""]","[""<span style='color: #E3B643'><b>Player Y</b></span>"",""<span style='color: #53BA42'><b>Player G</b></span>"",""somewhat""]",22504.0,1812745,140,survey-multi-choice,6
"[False, False, False]","[""Which player is trying to get the ball <b>into</b> the hole?"",""Which player is trying to <b>avoid</b> the hole?"",""How confident are you in your response to the previous two questions?""]","[""<span style='color: #53BA42'><b>Player G</b></span>"",""<span style='color: #E3B643'><b>Player Y</b></span>"",""not at all""]",13783.0,1972433,155,survey-multi-choice,6
"[True, False, True]","[""Which key should you press if you think the ball\nwill bounce off the back wall and then fly through\nthe hole in the center wall?"",""Which key should you press if you think the ball will\nbounce off the center wall, then the back wall,\nand then fly through the hole in the center wall?"",""What color is Player B's court?""]","[""q (yes)"",""q (yes)"",""blue""]",17976.0,113963,3,survey-multi-choice,7
"[True, True, True]","[""Which key should you press if you think the ball\nwill bounce off the back wall and then fly through\nthe hole in the center wall?"",""Which key should you press if you think the ball will\nbounce off the center wall, then the back wall,\nand then fly through the hole in the center wall?"",""What color is Player B's court?""]","[""q (yes)"",""p (no)"",""blue""]",7555.0,137587,5,survey-multi-choice,7
"[False, False, False]","[""Which player is trying to get the ball <b>into</b> the hole?"",""Which player is trying to <b>avoid</b> the hole?"",""How confident are you in your response to the previous two questions?""]","[""<span style='color: #4C4FE1'><b>Player B</b></span>"",""<span style='color: #E3B643'><b>Player Y</b></span>"",""not at all""]",16428.0,300471,31,survey-multi-choice,7
"[False, False, False]","[""Which player is trying to get the ball <b>into</b> the hole?"",""Which player is trying to <b>avoid</b> the hole?"",""How confident are you in your response to the previous two questions?""]","[""<span style='color: #53BA42'><b>Player G</b></span>"",""<span style='color: #4C4FE1'><b>Player B</b></span>"",""somewhat""]",10502.0,372358,45,survey-multi-choice,7
"[True, False, False]","[""Which player is trying to get the ball <b>into</b> the hole?"",""Which player is trying to <b>avoid</b> the hole?"",""How confident are you in your response to the previous two questions?""]","[""<span style='color: #E3B643'><b>Player Y</b></span>"",""<span style='color: #4C4FE1'><b>Player B</b></span>"",""a little""]",7970.0,527917,59,survey-multi-choice,7
"[True, True, False]","[""Which player is trying to get the ball <b>into</b> the hole?"",""Which player is trying to <b>avoid</b> the hole?"",""How confident are you in your response to the previous two questions?""]","[""<span style='color: #E3B643'><b>Player Y</b></span>"",""<span style='color: #53BA42'><b>Player G</b></span>"",""a little""]",5946.0,620590,73,survey-multi-choice,7
"[True, False, False]","[""Which player is trying to get the ball <b>into</b> the hole?"",""Which player is trying to <b>avoid</b> the hole?"",""How confident are you in your response to the previous two questions?""]","[""<span style='color: #E3B643'><b>Player Y</b></span>"",""<span style='color: #4C4FE1'><b>Player B</b></span>"",""somewhat""]",9810.0,689704,87,survey-multi-choice,7
"[True, True, False]","[""Which player is trying to get the ball <b>into</b> the hole?"",""Which player is trying to <b>avoid</b> the hole?"",""How confident are you in your response to the previous two questions?""]","[""<span style='color: #E3B643'><b>Player Y</b></span>"",""<span style='color: #53BA42'><b>Player G</b></span>"",""a little""]",6415.0,784446,101,survey-multi-choice,7
"[False, True, False]","[""Which player is trying to get the ball <b>into</b> the hole?"",""Which player is trying to <b>avoid</b> the hole?"",""How confident are you in your response to the previous two questions?""]","[""<span style='color: #4C4FE1'><b>Player B</b></span>"",""<span style='color: #53BA42'><b>Player G</b></span>"",""not at all""]",8947.0,872574,115,survey-multi-choice,7
"[False, False, False]","[""Which player is trying to get the ball <b>into</b> the hole?"",""Which player is trying to <b>avoid</b> the hole?"",""How confident are you in your response to the previous two questions?""]","[""<span style='color: #53BA42'><b>Player G</b></span>"",""<span style='color: #4C4FE1'><b>Player B</b></span>"",""not at all""]",9051.0,972119,129,survey-multi-choice,7
"[False, False, False]","[""Which player is trying to get the ball <b>into</b> the hole?"",""Which player is trying to <b>avoid</b> the hole?"",""How confident are you in your response to the previous two questions?""]","[""<span style='color: #53BA42'><b>Player G</b></span>"",""<span style='color: #4C4FE1'><b>Player B</b></span>"",""not at all""]",8000.0,1056718,142,survey-multi-choice,7
"[True, True, False]","[""Which player is trying to get the ball <b>into</b> the hole?"",""Which player is trying to <b>avoid</b> the hole?"",""How confident are you in your response to the previous two questions?""]","[""<span style='color: #E3B643'><b>Player Y</b></span>"",""<span style='color: #53BA42'><b>Player G</b></span>"",""a little""]",6902.0,1152176,157,survey-multi-choice,7
"[True, True, True]","[""Which key should you press if you think the ball\nwill bounce off the back wall and then fly through\nthe hole in the center wall?"",""Which key should you press if you think the ball will\nbounce off the center wall, then the back wall,\nand then fly through the hole in the center wall?"",""What color is Player B's court?""]","[""q (yes)"",""p (no)"",""blue""]",52246.0,191170,3,survey-multi-choice,8
"[True, False, False]","[""Which player is trying to get the ball <b>into</b> the hole?"",""Which player is trying to <b>avoid</b> the hole?"",""How confident are you in your response to the previous two questions?""]","[""<span style='color: #53BA42'><b>Player G</b></span>"",""<span style='color: #E3B643'><b>Player Y</b></span>"",""a little""]",28234.0,410288,29,survey-multi-choice,8
"[True, True, False]","[""Which player is trying to get the ball <b>into</b> the hole?"",""Which player is trying to <b>avoid</b> the hole?"",""How confident are you in your response to the previous two questions?""]","[""<span style='color: #53BA42'><b>Player G</b></span>"",""<span style='color: #4C4FE1'><b>Player B</b></span>"",""very""]",8921.0,486183,43,survey-multi-choice,8
"[True, False, False]","[""Which player is trying to get the ball <b>into</b> the hole?"",""Which player is trying to <b>avoid</b> the hole?"",""How confident are you in your response to the previous two questions?""]","[""<span style='color: #53BA42'><b>Player G</b></span>"",""<span style='color: #E3B643'><b>Player Y</b></span>"",""somewhat""]",9784.0,556376,57,survey-multi-choice,8
"[False, False, False]","[""Which player is trying to get the ball <b>into</b> the hole?"",""Which player is trying to <b>avoid</b> the hole?"",""How confident are you in your response to the previous two questions?""]","[""<span style='color: #4C4FE1'><b>Player B</b></span>"",""<span style='color: #53BA42'><b>Player G</b></span>"",""somewhat""]",6855.0,627743,71,survey-multi-choice,8
"[True, True, False]","[""Which player is trying to get the ball <b>into</b> the hole?"",""Which player is trying to <b>avoid</b> the hole?"",""How confident are you in your response to the previous two questions?""]","[""<span style='color: #53BA42'><b>Player G</b></span>"",""<span style='color: #4C4FE1'><b>Player B</b></span>"",""very""]",6277.0,691831,85,survey-multi-choice,8
"[True, True, False]","[""Which player is trying to get the ball <b>into</b> the hole?"",""Which player is trying to <b>avoid</b> the hole?"",""How confident are you in your response to the previous two questions?""]","[""<span style='color: #53BA42'><b>Player G</b></span>"",""<span style='color: #4C4FE1'><b>Player B</b></span>"",""somewhat""]",27196.0,806848,99,survey-multi-choice,8
"[True, True, False]","[""Which player is trying to get the ball <b>into</b> the hole?"",""Which player is trying to <b>avoid</b> the hole?"",""How confident are you in your response to the previous two questions?""]","[""<span style='color: #53BA42'><b>Player G</b></span>"",""<span style='color: #4C4FE1'><b>Player B</b></span>"",""somewhat""]",5427.0,871310,113,survey-multi-choice,8
"[True, True, False]","[""Which player is trying to get the ball <b>into</b> the hole?"",""Which player is trying to <b>avoid</b> the hole?"",""How confident are you in your response to the previous two questions?""]","[""<span style='color: #53BA42'><b>Player G</b></span>"",""<span style='color: #4C4FE1'><b>Player B</b></span>"",""a little""]",35267.0,983950,127,survey-multi-choice,8
"[False, False, False]","[""Which player is trying to get the ball <b>into</b> the hole?"",""Which player is trying to <b>avoid</b> the hole?"",""How confident are you in your response to the previous two questions?""]","[""<span style='color: #E3B643'><b>Player Y</b></span>"",""<span style='color: #53BA42'><b>Player G</b></span>"",""somewhat""]",6039.0,1072261,140,survey-multi-choice,8
"[True, True, False]","[""Which player is trying to get the ball <b>into</b> the hole?"",""Which player is trying to <b>avoid</b> the hole?"",""How confident are you in your response to the previous two questions?""]","[""<span style='color: #53BA42'><b>Player G</b></span>"",""<span style='color: #4C4FE1'><b>Player B</b></span>"",""very""]",6134.0,1183692,155,survey-multi-choice,8
"[True, False, True]","[""Which key should you press if you think the ball\nwill bounce off the back wall and then fly through\nthe hole in the center wall?"",""Which key should you press if you think the ball will\nbounce off the center wall, then the back wall,\nand then fly through the hole in the center wall?"",""What color is Player B's court?""]","[""q (yes)"",""q (yes)"",""blue""]",30556.0,142070,3,survey-multi-choice,9
"[True, True, True]","[""Which key should you press if you think the ball\nwill bounce off the back wall and then fly through\nthe hole in the center wall?"",""Which key should you press if you think the ball will\nbounce off the center wall, then the back wall,\nand then fly through the hole in the center wall?"",""What color is Player B's court?""]","[""q (yes)"",""p (no)"",""blue""]",7680.0,171537,5,survey-multi-choice,9
"[False, False, False]","[""Which player is trying to get the ball <b>into</b> the hole?"",""Which player is trying to <b>avoid</b> the hole?"",""How confident are you in your response to the previous two questions?""]","[""<span style='color: #4C4FE1'><b>Player B</b></span>"",""<span style='color: #53BA42'><b>Player G</b></span>"",""somewhat""]",12494.0,398782,31,survey-multi-choice,9
"[False, False, False]","[""Which player is trying to get the ball <b>into</b> the hole?"",""Which player is trying to <b>avoid</b> the hole?"",""How confident are you in your response to the previous two questions?""]","[""<span style='color: #4C4FE1'><b>Player B</b></span>"",""<span style='color: #53BA42'><b>Player G</b></span>"",""somewhat""]",9101.0,521152,45,survey-multi-choice,9
"[True, False, False]","[""Which player is trying to get the ball <b>into</b> the hole?"",""Which player is trying to <b>avoid</b> the hole?"",""How confident are you in your response to the previous two questions?""]","[""<span style='color: #53BA42'><b>Player G</b></span>"",""<span style='color: #E3B643'><b>Player Y</b></span>"",""very""]",13469.0,697298,59,survey-multi-choice,9
"[True, True, True]","[""Which key should you press if you think the ball\nwill bounce off the back wall and then fly through\nthe hole in the center wall?"",""Which key should you press if you think the ball will\nbounce off the center wall, then the back wall,\nand then fly through the hole in the center wall?"",""What color is Player B's court?""]","[""q (yes)"",""p (no)"",""blue""]",6385.0,146101,3,survey-multi-choice,10
"[True, True, False]","[""Which player is trying to get the ball <b>into</b> the hole?"",""Which player is trying to <b>avoid</b> the hole?"",""How confident are you in your response to the previous two questions?""]","[""<span style='color: #4C4FE1'><b>Player B</b></span>"",""<span style='color: #E3B643'><b>Player Y</b></span>"",""a little""]",6491.0,350241,29,survey-multi-choice,10
"[True, False, True]","[""Which key should you press if you think the ball\nwill bounce off the back wall and then fly through\nthe hole in the center wall?"",""Which key should you press if you think the ball will\nbounce off the center wall, then the back wall,\nand then fly through the hole in the center wall?"",""What color is Player B's court?""]","[""q (yes)"",""q (yes)"",""blue""]",23244.0,101148,3,survey-multi-choice,11
"[True, True, True]","[""Which key should you press if you think the ball\nwill bounce off the back wall and then fly through\nthe hole in the center wall?"",""Which key should you press if you think the ball will\nbounce off the center wall, then the back wall,\nand then fly through the hole in the center wall?"",""What color is Player B's court?""]","[""q (yes)"",""p (no)"",""blue""]",10191.0,129990,5,survey-multi-choice,11
"[True, False, False]","[""Which player is trying to get the ball <b>into</b> the hole?"",""Which player is trying to <b>avoid</b> the hole?"",""How confident are you in your response to the previous two questions?""]","[""<span style='color: #4C4FE1'><b>Player B</b></span>"",""<span style='color: #53BA42'><b>Player G</b></span>"",""somewhat""]",12555.0,317530,31,survey-multi-choice,11
"[True, True, False]","[""Which player is trying to get the ball <b>into</b> the hole?"",""Which player is trying to <b>avoid</b> the hole?"",""How confident are you in your response to the previous two questions?""]","[""<span style='color: #4C4FE1'><b>Player B</b></span>"",""<span style='color: #E3B643'><b>Player Y</b></span>"",""somewhat""]",10332.0,384127,45,survey-multi-choice,11
"[True, False, False]","[""Which player is trying to get the ball <b>into</b> the hole?"",""Which player is trying to <b>avoid</b> the hole?"",""How confident are you in your response to the previous two questions?""]","[""<span style='color: #4C4FE1'><b>Player B</b></span>"",""<span style='color: #53BA42'><b>Player G</b></span>"",""somewhat""]",9384.0,453122,59,survey-multi-choice,11
"[True, True, False]","[""Which player is trying to get the ball <b>into</b> the hole?"",""Which player is trying to <b>avoid</b> the hole?"",""How confident are you in your response to the previous two questions?""]","[""<span style='color: #4C4FE1'><b>Player B</b></span>"",""<span style='color: #E3B643'><b>Player Y</b></span>"",""somewhat""]",11778.0,519150,73,survey-multi-choice,11
"[True, False, False]","[""Which player is trying to get the ball <b>into</b> the hole?"",""Which player is trying to <b>avoid</b> the hole?"",""How confident are you in your response to the previous two questions?""]","[""<span style='color: #4C4FE1'><b>Player B</b></span>"",""<span style='color: #53BA42'><b>Player G</b></span>"",""somewhat""]",10217.0,592585,87,survey-multi-choice,11
"[True, True, False]","[""Which player is trying to get the ball <b>into</b> the hole?"",""Which player is trying to <b>avoid</b> the hole?"",""How confident are you in your response to the previous two questions?""]","[""<span style='color: #4C4FE1'><b>Player B</b></span>"",""<span style='color: #E3B643'><b>Player Y</b></span>"",""somewhat""]",15907.0,677325,101,survey-multi-choice,11
"[True, False, False]","[""Which player is trying to get the ball <b>into</b> the hole?"",""Which player is trying to <b>avoid</b> the hole?"",""How confident are you in your response to the previous two questions?""]","[""<span style='color: #4C4FE1'><b>Player B</b></span>"",""<span style='color: #53BA42'><b>Player G</b></span>"",""a little""]",6936.0,768053,115,survey-multi-choice,11
"[True, True, False]","[""Which player is trying to get the ball <b>into</b> the hole?"",""Which player is trying to <b>avoid</b> the hole?"",""How confident are you in your response to the previous two questions?""]","[""<span style='color: #4C4FE1'><b>Player B</b></span>"",""<span style='color: #E3B643'><b>Player Y</b></span>"",""not at all""]",13050.0,865146,129,survey-multi-choice,11
"[False, False, False]","[""Which player is trying to get the ball <b>into</b> the hole?"",""Which player is trying to <b>avoid</b> the hole?"",""How confident are you in your response to the previous two questions?""]","[""<span style='color: #E3B643'><b>Player Y</b></span>"",""<span style='color: #53BA42'><b>Player G</b></span>"",""not at all""]",10837.0,943558,142,survey-multi-choice,11
"[False, False, False]","[""Which player is trying to get the ball <b>into</b> the hole?"",""Which player is trying to <b>avoid</b> the hole?"",""How confident are you in your response to the previous two questions?""]","[""<span style='color: #E3B643'><b>Player Y</b></span>"",""<span style='color: #53BA42'><b>Player G</b></span>"",""not at all""]",10756.0,1031466,157,survey-multi-choice,11
"[True, True, True]","[""Which key should you press if you think the ball\nwill bounce off the back wall and then fly through\nthe hole in the center wall?"",""Which key should you press if you think the ball will\nbounce off the center wall, then the back wall,\nand then fly through the hole in the center wall?"",""What color is Player B's court?""]","[""q (yes)"",""p (no)"",""blue""]",35500.0,149507,3,survey-multi-choice,12
"[False, True, False]","[""Which player is trying to get the ball <b>into</b> the hole?"",""Which player is trying to <b>avoid</b> the hole?"",""How confident are you in your response to the previous two questions?""]","[""<span style='color: #53BA42'><b>Player G</b></span>"",""<span style='color: #E3B643'><b>Player Y</b></span>"",""not at all""]",19702.0,396840,29,survey-multi-choice,12
"[True, False, False]","[""Which player is trying to get the ball <b>into</b> the hole?"",""Which player is trying to <b>avoid</b> the hole?"",""How confident are you in your response to the previous two questions?""]","[""<span style='color: #4C4FE1'><b>Player B</b></span>"",""<span style='color: #53BA42'><b>Player G</b></span>"",""a little""]",13646.0,523905,43,survey-multi-choice,12
"[True, True, False]","[""Which player is trying to get the ball <b>into</b> the hole?"",""Which player is trying to <b>avoid</b> the hole?"",""How confident are you in your response to the previous two questions?""]","[""<span style='color: #4C4FE1'><b>Player B</b></span>"",""<span style='color: #E3B643'><b>Player Y</b></span>"",""somewhat""]",12136.0,659665,57,survey-multi-choice,12
"[True, False, False]","[""Which player is trying to get the ball <b>into</b> the hole?"",""Which player is trying to <b>avoid</b> the hole?"",""How confident are you in your response to the previous two questions?""]","[""<span style='color: #4C4FE1'><b>Player B</b></span>"",""<span style='color: #53BA42'><b>Player G</b></span>"",""somewhat""]",17555.0,774156,71,survey-multi-choice,12
"[True, True, False]","[""Which player is trying to get the ball <b>into</b> the hole?"",""Which player is trying to <b>avoid</b> the hole?"",""How confident are you in your response to the previous two questions?""]","[""<span style='color: #4C4FE1'><b>Player B</b></span>"",""<span style='color: #E3B643'><b>Player Y</b></span>"",""somewhat""]",10725.0,1717601,85,survey-multi-choice,12
"[True, True, True]","[""Which player is trying to get the ball <b>into</b> the hole?"",""Which player is trying to <b>avoid</b> the hole?"",""How confident are you in your response to the previous two questions?""]","[""<span style='color: #4C4FE1'><b>Player B</b></span>"",""<span style='color: #E3B643'><b>Player Y</b></span>"",""certain""]",9784.0,1821784,99,survey-multi-choice,12
"[True, True, False]","[""Which player is trying to get the ball <b>into</b> the hole?"",""Which player is trying to <b>avoid</b> the hole?"",""How confident are you in your response to the previous two questions?""]","[""<span style='color: #4C4FE1'><b>Player B</b></span>"",""<span style='color: #E3B643'><b>Player Y</b></span>"",""very""]",17708.0,1942274,113,survey-multi-choice,12
"[True, True, True]","[""Which player is trying to get the ball <b>into</b> the hole?"",""Which player is trying to <b>avoid</b> the hole?"",""How confident are you in your response to the previous two questions?""]","[""<span style='color: #4C4FE1'><b>Player B</b></span>"",""<span style='color: #E3B643'><b>Player Y</b></span>"",""certain""]",7737.0,2053033,127,survey-multi-choice,12
"[True, True, True]","[""Which player is trying to get the ball <b>into</b> the hole?"",""Which player is trying to <b>avoid</b> the hole?"",""How confident are you in your response to the previous two questions?""]","[""<span style='color: #4C4FE1'><b>Player B</b></span>"",""<span style='color: #E3B643'><b>Player Y</b></span>"",""certain""]",10696.0,2164696,140,survey-multi-choice,12
"[True, True, False]","[""Which player is trying to get the ball <b>into</b> the hole?"",""Which player is trying to <b>avoid</b> the hole?"",""How confident are you in your response to the previous two questions?""]","[""<span style='color: #4C4FE1'><b>Player B</b></span>"",""<span style='color: #E3B643'><b>Player Y</b></span>"",""very""]",12159.0,2245761,155,survey-multi-choice,12
"[True, True, True]","[""Which key should you press if you think the ball\nwill bounce off the back wall and then fly through\nthe hole in the center wall?"",""Which key should you press if you think the ball will\nbounce off the center wall, then the back wall,\nand then fly through the hole in the center wall?"",""What color is Player B's court?""]","[""q (yes)"",""p (no)"",""blue""]",81883.0,444353,3,survey-multi-choice,13
"[False, True, False]","[""Which player is trying to get the ball <b>into</b> the hole?"",""Which player is trying to <b>avoid</b> the hole?"",""How confident are you in your response to the previous two questions?""]","[""<span style='color: #4C4FE1'><b>Player B</b></span>"",""<span style='color: #53BA42'><b>Player G</b></span>"",""a little""]",19903.0,676506,29,survey-multi-choice,13
"[False, True, False]","[""Which player is trying to get the ball <b>into</b> the hole?"",""Which player is trying to <b>avoid</b> the hole?"",""How confident are you in your response to the previous two questions?""]","[""<span style='color: #4C4FE1'><b>Player B</b></span>"",""<span style='color: #53BA42'><b>Player G</b></span>"",""very""]",5881.0,744492,43,survey-multi-choice,13
"[True, False, False]","[""Which player is trying to get the ball <b>into</b> the hole?"",""Which player is trying to <b>avoid</b> the hole?"",""How confident are you in your response to the previous two questions?""]","[""<span style='color: #E3B643'><b>Player Y</b></span>"",""<span style='color: #4C4FE1'><b>Player B</b></span>"",""very""]",4888.0,806328,57,survey-multi-choice,13
"[True, True, False]","[""Which player is trying to get the ball <b>into</b> the hole?"",""Which player is trying to <b>avoid</b> the hole?"",""How confident are you in your response to the previous two questions?""]","[""<span style='color: #E3B643'><b>Player Y</b></span>"",""<span style='color: #53BA42'><b>Player G</b></span>"",""very""]",4597.0,863576,71,survey-multi-choice,13
"[True, False, False]","[""Which player is trying to get the ball <b>into</b> the hole?"",""Which player is trying to <b>avoid</b> the hole?"",""How confident are you in your response to the previous two questions?""]","[""<span style='color: #E3B643'><b>Player Y</b></span>"",""<span style='color: #4C4FE1'><b>Player B</b></span>"",""a little""]",4709.0,918513,85,survey-multi-choice,13
"[False, True, False]","[""Which player is trying to get the ball <b>into</b> the hole?"",""Which player is trying to <b>avoid</b> the hole?"",""How confident are you in your response to the previous two questions?""]","[""<span style='color: #4C4FE1'><b>Player B</b></span>"",""<span style='color: #53BA42'><b>Player G</b></span>"",""somewhat""]",6814.0,976267,99,survey-multi-choice,13
"[True, True, False]","[""Which player is trying to get the ball <b>into</b> the hole?"",""Which player is trying to <b>avoid</b> the hole?"",""How confident are you in your response to the previous two questions?""]","[""<span style='color: #E3B643'><b>Player Y</b></span>"",""<span style='color: #53BA42'><b>Player G</b></span>"",""very""]",5197.0,1034354,113,survey-multi-choice,13
"[False, False, False]","[""Which player is trying to get the ball <b>into</b> the hole?"",""Which player is trying to <b>avoid</b> the hole?"",""How confident are you in your response to the previous two questions?""]","[""<span style='color: #53BA42'><b>Player G</b></span>"",""<span style='color: #E3B643'><b>Player Y</b></span>"",""not at all""]",6800.0,1095366,127,survey-multi-choice,13
"[False, False, False]","[""Which player is trying to get the ball <b>into</b> the hole?"",""Which player is trying to <b>avoid</b> the hole?"",""How confident are you in your response to the previous two questions?""]","[""<span style='color: #53BA42'><b>Player G</b></span>"",""<span style='color: #E3B643'><b>Player Y</b></span>"",""a little""]",5665.0,1145987,140,survey-multi-choice,13
"[True, False, False]","[""Which player is trying to get the ball <b>into</b> the hole?"",""Which player is trying to <b>avoid</b> the hole?"",""How confident are you in your response to the previous two questions?""]","[""<span style='color: #E3B643'><b>Player Y</b></span>"",""<span style='color: #4C4FE1'><b>Player B</b></span>"",""somewhat""]",5075.0,1205722,155,survey-multi-choice,13
"[True, True, True]","[""Which key should you press if you think the ball\nwill bounce off the back wall and then fly through\nthe hole in the center wall?"",""Which key should you press if you think the ball will\nbounce off the center wall, then the back wall,\nand then fly through the hole in the center wall?"",""What color is Player B's court?""]","[""q (yes)"",""p (no)"",""blue""]",21059.0,65927,3,survey-multi-choice,14
"[False, False, False]","[""Which player is trying to get the ball <b>into</b> the hole?"",""Which player is trying to <b>avoid</b> the hole?"",""How confident are you in your response to the previous two questions?""]","[""<span style='color: #53BA42'><b>Player G</b></span>"",""<span style='color: #4C4FE1'><b>Player B</b></span>"",""a little""]",14374.0,270284,29,survey-multi-choice,14
"[True, True, True]","[""Which key should you press if you think the ball\nwill bounce off the back wall and then fly through\nthe hole in the center wall?"",""Which key should you press if you think the ball will\nbounce off the center wall, then the back wall,\nand then fly through the hole in the center wall?"",""What color is Player B's court?""]","[""q (yes)"",""p (no)"",""blue""]",16562.0,309848,3,survey-multi-choice,15
"[False, False, False]","[""Which player is trying to get the ball <b>into</b> the hole?"",""Which player is trying to <b>avoid</b> the hole?"",""How confident are you in your response to the previous two questions?""]","[""<span style='color: #53BA42'><b>Player G</b></span>"",""<span style='color: #4C4FE1'><b>Player B</b></span>"",""somewhat""]",18771.0,535002,29,survey-multi-choice,15
"[True, True, False]","[""Which player is trying to get the ball <b>into</b> the hole?"",""Which player is trying to <b>avoid</b> the hole?"",""How confident are you in your response to the previous two questions?""]","[""<span style='color: #E3B643'><b>Player Y</b></span>"",""<span style='color: #53BA42'><b>Player G</b></span>"",""somewhat""]",10763.0,637349,43,survey-multi-choice,15
"[True, True, False]","[""Which player is trying to get the ball <b>into</b> the hole?"",""Which player is trying to <b>avoid</b> the hole?"",""How confident are you in your response to the previous two questions?""]","[""<span style='color: #E3B643'><b>Player Y</b></span>"",""<span style='color: #53BA42'><b>Player G</b></span>"",""very""]",635283.0,1384395,57,survey-multi-choice,15
"[True, True, False]","[""Which player is trying to get the ball <b>into</b> the hole?"",""Which player is trying to <b>avoid</b> the hole?"",""How confident are you in your response to the previous two questions?""]","[""<span style='color: #E3B643'><b>Player Y</b></span>"",""<span style='color: #53BA42'><b>Player G</b></span>"",""very""]",9584.0,1482266,71,survey-multi-choice,15
"[True, True, False]","[""Which player is trying to get the ball <b>into</b> the hole?"",""Which player is trying to <b>avoid</b> the hole?"",""How confident are you in your response to the previous two questions?""]","[""<span style='color: #E3B643'><b>Player Y</b></span>"",""<span style='color: #53BA42'><b>Player G</b></span>"",""very""]",10686.0,1579394,85,survey-multi-choice,15
"[True, True, False]","[""Which player is trying to get the ball <b>into</b> the hole?"",""Which player is trying to <b>avoid</b> the hole?"",""How confident are you in your response to the previous two questions?""]","[""<span style='color: #E3B643'><b>Player Y</b></span>"",""<span style='color: #53BA42'><b>Player G</b></span>"",""very""]",6949.0,1678546,99,survey-multi-choice,15
"[True, True, False]","[""Which player is trying to get the ball <b>into</b> the hole?"",""Which player is trying to <b>avoid</b> the hole?"",""How confident are you in your response to the previous two questions?""]","[""<span style='color: #E3B643'><b>Player Y</b></span>"",""<span style='color: #53BA42'><b>Player G</b></span>"",""very""]",7098.0,1790824,113,survey-multi-choice,15
"[True, True, False]","[""Which player is trying to get the ball <b>into</b> the hole?"",""Which player is trying to <b>avoid</b> the hole?"",""How confident are you in your response to the previous two questions?""]","[""<span style='color: #E3B643'><b>Player Y</b></span>"",""<span style='color: #53BA42'><b>Player G</b></span>"",""very""]",8564.0,1904276,127,survey-multi-choice,15
"[True, True, False]","[""Which player is trying to get the ball <b>into</b> the hole?"",""Which player is trying to <b>avoid</b> the hole?"",""How confident are you in your response to the previous two questions?""]","[""<span style='color: #E3B643'><b>Player Y</b></span>"",""<span style='color: #53BA42'><b>Player G</b></span>"",""very""]",5756.0,2022482,140,survey-multi-choice,15
"[True, True, False]","[""Which player is trying to get the ball <b>into</b> the hole?"",""Which player is trying to <b>avoid</b> the hole?"",""How confident are you in your response to the previous two questions?""]","[""<span style='color: #E3B643'><b>Player Y</b></span>"",""<span style='color: #53BA42'><b>Player G</b></span>"",""very""]",4841.0,2081066,155,survey-multi-choice,15
"[True, False, True]","[""Which key should you press if you think the ball\nwill bounce off the back wall and then fly through\nthe hole in the center wall?"",""Which key should you press if you think the ball will\nbounce off the center wall, then the back wall,\nand then fly through the hole in the center wall?"",""What color is Player B's court?""]","[""q (yes)"",""q (yes)"",""blue""]",22551.0,141119,3,survey-multi-choice,16
"[True, False, True]","[""Which key should you press if you think the ball\nwill bounce off the back wall and then fly through\nthe hole in the center wall?"",""Which key should you press if you think the ball will\nbounce off the center wall, then the back wall,\nand then fly through the hole in the center wall?"",""What color is Player B's court?""]","[""q (yes)"",""q (yes)"",""blue""]",18500.0,194699,5,survey-multi-choice,16
"[True, True, True]","[""Which key should you press if you think the ball\nwill bounce off the back wall and then fly through\nthe hole in the center wall?"",""Which key should you press if you think the ball will\nbounce off the center wall, then the back wall,\nand then fly through the hole in the center wall?"",""What color is Player B's court?""]","[""q (yes)"",""p (no)"",""blue""]",15868.0,261850,7,survey-multi-choice,16
"[False, False, False]","[""Which player is trying to get the ball <b>into</b> the hole?"",""Which player is trying to <b>avoid</b> the hole?"",""How confident are you in your response to the previous two questions?""]","[""<span style='color: #53BA42'><b>Player G</b></span>"",""<span style='color: #4C4FE1'><b>Player B</b></span>"",""not at all""]",14772.0,626312,33,survey-multi-choice,16
"[False, False, False]","[""Which player is trying to get the ball <b>into</b> the hole?"",""Which player is trying to <b>avoid</b> the hole?"",""How confident are you in your response to the previous two questions?""]","[""<span style='color: #53BA42'><b>Player G</b></span>"",""<span style='color: #4C4FE1'><b>Player B</b></span>"",""a little""]",14763.0,732696,47,survey-multi-choice,16
"[False, False, False]","[""Which player is trying to get the ball <b>into</b> the hole?"",""Which player is trying to <b>avoid</b> the hole?"",""How confident are you in your response to the previous two questions?""]","[""<span style='color: #53BA42'><b>Player G</b></span>"",""<span style='color: #4C4FE1'><b>Player B</b></span>"",""a little""]",8914.0,836003,61,survey-multi-choice,16
"[False, True, False]","[""Which player is trying to get the ball <b>into</b> the hole?"",""Which player is trying to <b>avoid</b> the hole?"",""How confident are you in your response to the previous two questions?""]","[""<span style='color: #4C4FE1'><b>Player B</b></span>"",""<span style='color: #53BA42'><b>Player G</b></span>"",""a little""]",6721.0,924814,75,survey-multi-choice,16
"[False, True, False]","[""Which player is trying to get the ball <b>into</b> the hole?"",""Which player is trying to <b>avoid</b> the hole?"",""How confident are you in your response to the previous two questions?""]","[""<span style='color: #4C4FE1'><b>Player B</b></span>"",""<span style='color: #53BA42'><b>Player G</b></span>"",""a little""]",6687.0,1024409,89,survey-multi-choice,16
"[True, True, False]","[""Which player is trying to get the ball <b>into</b> the hole?"",""Which player is trying to <b>avoid</b> the hole?"",""How confident are you in your response to the previous two questions?""]","[""<span style='color: #E3B643'><b>Player Y</b></span>"",""<span style='color: #53BA42'><b>Player G</b></span>"",""a little""]",8268.0,1123308,103,survey-multi-choice,16
"[True, True, False]","[""Which player is trying to get the ball <b>into</b> the hole?"",""Which player is trying to <b>avoid</b> the hole?"",""How confident are you in your response to the previous two questions?""]","[""<span style='color: #E3B643'><b>Player Y</b></span>"",""<span style='color: #53BA42'><b>Player G</b></span>"",""very""]",12300.0,1223363,117,survey-multi-choice,16
"[True, False, False]","[""Which player is trying to get the ball <b>into</b> the hole?"",""Which player is trying to <b>avoid</b> the hole?"",""How confident are you in your response to the previous two questions?""]","[""<span style='color: #E3B643'><b>Player Y</b></span>"",""<span style='color: #4C4FE1'><b>Player B</b></span>"",""somewhat""]",8819.0,1356115,131,survey-multi-choice,16
"[False, True, False]","[""Which player is trying to get the ball <b>into</b> the hole?"",""Which player is trying to <b>avoid</b> the hole?"",""How confident are you in your response to the previous two questions?""]","[""<span style='color: #4C4FE1'><b>Player B</b></span>"",""<span style='color: #53BA42'><b>Player G</b></span>"",""very""]",9895.0,1453668,144,survey-multi-choice,16
"[False, False, False]","[""Which player is trying to get the ball <b>into</b> the hole?"",""Which player is trying to <b>avoid</b> the hole?"",""How confident are you in your response to the previous two questions?""]","[""<span style='color: #53BA42'><b>Player G</b></span>"",""<span style='color: #E3B643'><b>Player Y</b></span>"",""a little""]",9383.0,1513803,159,survey-multi-choice,16
"[True, True, True]","[""Which key should you press if you think the ball\nwill bounce off the back wall and then fly through\nthe hole in the center wall?"",""Which key should you press if you think the ball will\nbounce off the center wall, then the back wall,\nand then fly through the hole in the center wall?"",""What color is Player B's court?""]","[""q (yes)"",""p (no)"",""blue""]",137733.0,230896,3,survey-multi-choice,17
"[False, True, False]","[""Which player is trying to get the ball <b>into</b> the hole?"",""Which player is trying to <b>avoid</b> the hole?"",""How confident are you in your response to the previous two questions?""]","[""<span style='color: #53BA42'><b>Player G</b></span>"",""<span style='color: #E3B643'><b>Player Y</b></span>"",""a little""]",15879.0,429851,29,survey-multi-choice,17
"[True, True, False]","[""Which player is trying to get the ball <b>into</b> the hole?"",""Which player is trying to <b>avoid</b> the hole?"",""How confident are you in your response to the previous two questions?""]","[""<span style='color: #4C4FE1'><b>Player B</b></span>"",""<span style='color: #E3B643'><b>Player Y</b></span>"",""very""]",5245.0,534399,43,survey-multi-choice,17
"[True, True, False]","[""Which player is trying to get the ball <b>into</b> the hole?"",""Which player is trying to <b>avoid</b> the hole?"",""How confident are you in your response to the previous two questions?""]","[""<span style='color: #4C4FE1'><b>Player B</b></span>"",""<span style='color: #E3B643'><b>Player Y</b></span>"",""somewhat""]",4851.0,640211,57,survey-multi-choice,17
"[False, True, True]","[""Which player is trying to get the ball <b>into</b> the hole?"",""Which player is trying to <b>avoid</b> the hole?"",""How confident are you in your response to the previous two questions?""]","[""<span style='color: #53BA42'><b>Player G</b></span>"",""<span style='color: #E3B643'><b>Player Y</b></span>"",""certain""]",2917.0,772732,71,survey-multi-choice,17
"[True, True, False]","[""Which player is trying to get the ball <b>into</b> the hole?"",""Which player is trying to <b>avoid</b> the hole?"",""How confident are you in your response to the previous two questions?""]","[""<span style='color: #4C4FE1'><b>Player B</b></span>"",""<span style='color: #E3B643'><b>Player Y</b></span>"",""a little""]",3297.0,909552,85,survey-multi-choice,17
"[True, True, False]","[""Which player is trying to get the ball <b>into</b> the hole?"",""Which player is trying to <b>avoid</b> the hole?"",""How confident are you in your response to the previous two questions?""]","[""<span style='color: #4C4FE1'><b>Player B</b></span>"",""<span style='color: #E3B643'><b>Player Y</b></span>"",""very""]",99415.0,1082683,99,survey-multi-choice,17
"[False, False, False]","[""Which player is trying to get the ball <b>into</b> the hole?"",""Which player is trying to <b>avoid</b> the hole?"",""How confident are you in your response to the previous two questions?""]","[""<span style='color: #53BA42'><b>Player G</b></span>"",""<span style='color: #4C4FE1'><b>Player B</b></span>"",""somewhat""]",4349.0,1161408,113,survey-multi-choice,17
"[False, True, False]","[""Which player is trying to get the ball <b>into</b> the hole?"",""Which player is trying to <b>avoid</b> the hole?"",""How confident are you in your response to the previous two questions?""]","[""<span style='color: #53BA42'><b>Player G</b></span>"",""<span style='color: #E3B643'><b>Player Y</b></span>"",""not at all""]",3111.0,1260036,127,survey-multi-choice,17
"[False, True, False]","[""Which player is trying to get the ball <b>into</b> the hole?"",""Which player is trying to <b>avoid</b> the hole?"",""How confident are you in your response to the previous two questions?""]","[""<span style='color: #53BA42'><b>Player G</b></span>"",""<span style='color: #E3B643'><b>Player Y</b></span>"",""somewhat""]",2420.0,1363094,140,survey-multi-choice,17
"[False, True, False]","[""Which player is trying to get the ball <b>into</b> the hole?"",""Which player is trying to <b>avoid</b> the hole?"",""How confident are you in your response to the previous two questions?""]","[""<span style='color: #53BA42'><b>Player G</b></span>"",""<span style='color: #E3B643'><b>Player Y</b></span>"",""not at all""]",5729.0,1425773,155,survey-multi-choice,17
"[True, False, True]","[""Which key should you press if you think the ball\nwill bounce off the back wall and then fly through\nthe hole in the center wall?"",""Which key should you press if you think the ball will\nbounce off the center wall, then the back wall,\nand then fly through the hole in the center wall?"",""What color is Player B's court?""]","[""q (yes)"",""q (yes)"",""blue""]",19402.0,77088,3,survey-multi-choice,18
"[True, True, True]","[""Which key should you press if you think the ball\nwill bounce off the back wall and then fly through\nthe hole in the center wall?"",""Which key should you press if you think the ball will\nbounce off the center wall, then the back wall,\nand then fly through the hole in the center wall?"",""What color is Player B's court?""]","[""q (yes)"",""p (no)"",""blue""]",7822.0,97831,5,survey-multi-choice,18
"[False, False, False]","[""Which player is trying to get the ball <b>into</b> the hole?"",""Which player is trying to <b>avoid</b> the hole?"",""How confident are you in your response to the previous two questions?""]","[""<span style='color: #4C4FE1'><b>Player B</b></span>"",""<span style='color: #E3B643'><b>Player Y</b></span>"",""somewhat""]",14637.0,256034,31,survey-multi-choice,18
"[False, True, False]","[""Which player is trying to get the ball <b>into</b> the hole?"",""Which player is trying to <b>avoid</b> the hole?"",""How confident are you in your response to the previous two questions?""]","[""<span style='color: #4C4FE1'><b>Player B</b></span>"",""<span style='color: #53BA42'><b>Player G</b></span>"",""a little""]",6859.0,306088,45,survey-multi-choice,18
"[False, True, False]","[""Which player is trying to get the ball <b>into</b> the hole?"",""Which player is trying to <b>avoid</b> the hole?"",""How confident are you in your response to the previous two questions?""]","[""<span style='color: #4C4FE1'><b>Player B</b></span>"",""<span style='color: #53BA42'><b>Player G</b></span>"",""a little""]",6485.0,355950,59,survey-multi-choice,18
"[False, False, False]","[""Which player is trying to get the ball <b>into</b> the hole?"",""Which player is trying to <b>avoid</b> the hole?"",""How confident are you in your response to the previous two questions?""]","[""<span style='color: #4C4FE1'><b>Player B</b></span>"",""<span style='color: #E3B643'><b>Player Y</b></span>"",""a little""]",5627.0,405681,73,survey-multi-choice,18
"[True, False, False]","[""Which player is trying to get the ball <b>into</b> the hole?"",""Which player is trying to <b>avoid</b> the hole?"",""How confident are you in your response to the previous two questions?""]","[""<span style='color: #E3B643'><b>Player Y</b></span>"",""<span style='color: #4C4FE1'><b>Player B</b></span>"",""a little""]",4367.0,451309,87,survey-multi-choice,18
"[True, True, False]","[""Which player is trying to get the ball <b>into</b> the hole?"",""Which player is trying to <b>avoid</b> the hole?"",""How confident are you in your response to the previous two questions?""]","[""<span style='color: #E3B643'><b>Player Y</b></span>"",""<span style='color: #53BA42'><b>Player G</b></span>"",""a little""]",9910.0,504774,101,survey-multi-choice,18
"[True, False, False]","[""Which player is trying to get the ball <b>into</b> the hole?"",""Which player is trying to <b>avoid</b> the hole?"",""How confident are you in your response to the previous two questions?""]","[""<span style='color: #E3B643'><b>Player Y</b></span>"",""<span style='color: #4C4FE1'><b>Player B</b></span>"",""a little""]",5924.0,550195,115,survey-multi-choice,18
"[True, False, False]","[""Which player is trying to get the ball <b>into</b> the hole?"",""Which player is trying to <b>avoid</b> the hole?"",""How confident are you in your response to the previous two questions?""]","[""<span style='color: #E3B643'><b>Player Y</b></span>"",""<span style='color: #4C4FE1'><b>Player B</b></span>"",""a little""]",3879.0,598092,129,survey-multi-choice,18
"[False, True, False]","[""Which player is trying to get the ball <b>into</b> the hole?"",""Which player is trying to <b>avoid</b> the hole?"",""How confident are you in your response to the previous two questions?""]","[""<span style='color: #4C4FE1'><b>Player B</b></span>"",""<span style='color: #53BA42'><b>Player G</b></span>"",""a little""]",3959.0,639299,142,survey-multi-choice,18
"[False, False, False]","[""Which player is trying to get the ball <b>into</b> the hole?"",""Which player is trying to <b>avoid</b> the hole?"",""How confident are you in your response to the previous two questions?""]","[""<span style='color: #53BA42'><b>Player G</b></span>"",""<span style='color: #E3B643'><b>Player Y</b></span>"",""not at all""]",5083.0,691670,157,survey-multi-choice,18
"[True, False, True]","[""Which key should you press if you think the ball\nwill bounce off the back wall and then fly through\nthe hole in the center wall?"",""Which key should you press if you think the ball will\nbounce off the center wall, then the back wall,\nand then fly through the hole in the center wall?"",""What color is Player B's court?""]","[""q (yes)"",""q (yes)"",""blue""]",15705.0,44990,3,survey-multi-choice,19
"[True, True, True]","[""Which key should you press if you think the ball\nwill bounce off the back wall and then fly through\nthe hole in the center wall?"",""Which key should you press if you think the ball will\nbounce off the center wall, then the back wall,\nand then fly through the hole in the center wall?"",""What color is Player B's court?""]","[""q (yes)"",""p (no)"",""blue""]",9620.0,58736,5,survey-multi-choice,19
"[False, False, False]","[""Which player is trying to get the ball <b>into</b> the hole?"",""Which player is trying to <b>avoid</b> the hole?"",""How confident are you in your response to the previous two questions?""]","[""<span style='color: #E3B643'><b>Player Y</b></span>"",""<span style='color: #4C4FE1'><b>Player B</b></span>"",""very""]",26094.0,220995,31,survey-multi-choice,19
"[False, False, False]","[""Which player is trying to get the ball <b>into</b> the hole?"",""Which player is trying to <b>avoid</b> the hole?"",""How confident are you in your response to the previous two questions?""]","[""<span style='color: #53BA42'><b>Player G</b></span>"",""<span style='color: #4C4FE1'><b>Player B</b></span>"",""very""]",10931.0,286183,45,survey-multi-choice,19
"[False, True, False]","[""Which player is trying to get the ball <b>into</b> the hole?"",""Which player is trying to <b>avoid</b> the hole?"",""How confident are you in your response to the previous two questions?""]","[""<span style='color: #53BA42'><b>Player G</b></span>"",""<span style='color: #E3B643'><b>Player Y</b></span>"",""very""]",5677.0,340070,59,survey-multi-choice,19
"[False, False, False]","[""Which player is trying to get the ball <b>into</b> the hole?"",""Which player is trying to <b>avoid</b> the hole?"",""How confident are you in your response to the previous two questions?""]","[""<span style='color: #E3B643'><b>Player Y</b></span>"",""<span style='color: #53BA42'><b>Player G</b></span>"",""very""]",7840.0,393622,73,survey-multi-choice,19
"[True, False, False]","[""Which player is trying to get the ball <b>into</b> the hole?"",""Which player is trying to <b>avoid</b> the hole?"",""How confident are you in your response to the previous two questions?""]","[""<span style='color: #4C4FE1'><b>Player B</b></span>"",""<span style='color: #53BA42'><b>Player G</b></span>"",""very""]",5409.0,450723,87,survey-multi-choice,19
"[False, False, False]","[""Which player is trying to get the ball <b>into</b> the hole?"",""Which player is trying to <b>avoid</b> the hole?"",""How confident are you in your response to the previous two questions?""]","[""<span style='color: #E3B643'><b>Player Y</b></span>"",""<span style='color: #4C4FE1'><b>Player B</b></span>"",""very""]",6999.0,505758,101,survey-multi-choice,19
"[True, False, False]","[""Which player is trying to get the ball <b>into</b> the hole?"",""Which player is trying to <b>avoid</b> the hole?"",""How confident are you in your response to the previous two questions?""]","[""<span style='color: #4C4FE1'><b>Player B</b></span>"",""<span style='color: #53BA42'><b>Player G</b></span>"",""very""]",5961.0,557105,115,survey-multi-choice,19
"[False, False, False]","[""Which player is trying to get the ball <b>into</b> the hole?"",""Which player is trying to <b>avoid</b> the hole?"",""How confident are you in your response to the previous two questions?""]","[""<span style='color: #E3B643'><b>Player Y</b></span>"",""<span style='color: #4C4FE1'><b>Player B</b></span>"",""very""]",4098.0,674977,129,survey-multi-choice,19
"[False, True, False]","[""Which player is trying to get the ball <b>into</b> the hole?"",""Which player is trying to <b>avoid</b> the hole?"",""How confident are you in your response to the previous two questions?""]","[""<span style='color: #E3B643'><b>Player Y</b></span>"",""<span style='color: #E3B643'><b>Player Y</b></span>"",""very""]",5881.0,777680,142,survey-multi-choice,19
"[False, False, False]","[""Which player is trying to get the ball <b>into</b> the hole?"",""Which player is trying to <b>avoid</b> the hole?"",""How confident are you in your response to the previous two questions?""]","[""<span style='color: #E3B643'><b>Player Y</b></span>"",""<span style='color: #53BA42'><b>Player G</b></span>"",""very""]",4268.0,827400,157,survey-multi-choice,19
"[True, True, False]","[""Which key should you press if you think the ball\nwill bounce off the back wall and then fly through\nthe hole in the center wall?"",""Which key should you press if you think the ball will\nbounce off the center wall, then the back wall,\nand then fly through the hole in the center wall?"",""What color is Player B's court?""]","[""q (yes)"",""p (no)"",""yellow""]",13612.0,60702,3,survey-multi-choice,20
"[True, True, True]","[""Which key should you press if you think the ball\nwill bounce off the back wall and then fly through\nthe hole in the center wall?"",""Which key should you press if you think the ball will\nbounce off the center wall, then the back wall,\nand then fly through the hole in the center wall?"",""What color is Player B's court?""]","[""q (yes)"",""p (no)"",""blue""]",12000.0,82544,5,survey-multi-choice,20
"[True, True, False]","[""Which player is trying to get the ball <b>into</b> the hole?"",""Which player is trying to <b>avoid</b> the hole?"",""How confident are you in your response to the previous two questions?""]","[""<span style='color: #4C4FE1'><b>Player B</b></span>"",""<span style='color: #E3B643'><b>Player Y</b></span>"",""a little""]",13523.0,238742,31,survey-multi-choice,20
"[True, True, False]","[""Which player is trying to get the ball <b>into</b> the hole?"",""Which player is trying to <b>avoid</b> the hole?"",""How confident are you in your response to the previous two questions?""]","[""<span style='color: #4C4FE1'><b>Player B</b></span>"",""<span style='color: #E3B643'><b>Player Y</b></span>"",""very""]",6019.0,320344,45,survey-multi-choice,20
"[True, True, True]","[""Which player is trying to get the ball <b>into</b> the hole?"",""Which player is trying to <b>avoid</b> the hole?"",""How confident are you in your response to the previous two questions?""]","[""<span style='color: #4C4FE1'><b>Player B</b></span>"",""<span style='color: #E3B643'><b>Player Y</b></span>"",""certain""]",6148.0,397862,59,survey-multi-choice,20
"[True, True, True]","[""Which player is trying to get the ball <b>into</b> the hole?"",""Which player is trying to <b>avoid</b> the hole?"",""How confident are you in your response to the previous two questions?""]","[""<span style='color: #4C4FE1'><b>Player B</b></span>"",""<span style='color: #E3B643'><b>Player Y</b></span>"",""certain""]",6654.0,478707,73,survey-multi-choice,20
"[True, True, True]","[""Which player is trying to get the ball <b>into</b> the hole?"",""Which player is trying to <b>avoid</b> the hole?"",""How confident are you in your response to the previous two questions?""]","[""<span style='color: #4C4FE1'><b>Player B</b></span>"",""<span style='color: #E3B643'><b>Player Y</b></span>"",""certain""]",8981.0,566237,87,survey-multi-choice,20
"[True, True, True]","[""Which player is trying to get the ball <b>into</b> the hole?"",""Which player is trying to <b>avoid</b> the hole?"",""How confident are you in your response to the previous two questions?""]","[""<span style='color: #4C4FE1'><b>Player B</b></span>"",""<span style='color: #E3B643'><b>Player Y</b></span>"",""certain""]",4886.0,644365,101,survey-multi-choice,20
"[False, True, False]","[""Which player is trying to get the ball <b>into</b> the hole?"",""Which player is trying to <b>avoid</b> the hole?"",""How confident are you in your response to the previous two questions?""]","[""<span style='color: #53BA42'><b>Player G</b></span>"",""<span style='color: #E3B643'><b>Player Y</b></span>"",""very""]",4656.0,725838,115,survey-multi-choice,20
"[True, True, True]","[""Which player is trying to get the ball <b>into</b> the hole?"",""Which player is trying to <b>avoid</b> the hole?"",""How confident are you in your response to the previous two questions?""]","[""<span style='color: #4C4FE1'><b>Player B</b></span>"",""<span style='color: #E3B643'><b>Player Y</b></span>"",""certain""]",6027.0,809879,129,survey-multi-choice,20
"[True, True, True]","[""Which player is trying to get the ball <b>into</b> the hole?"",""Which player is trying to <b>avoid</b> the hole?"",""How confident are you in your response to the previous two questions?""]","[""<span style='color: #4C4FE1'><b>Player B</b></span>"",""<span style='color: #E3B643'><b>Player Y</b></span>"",""certain""]",15034.0,902674,142,survey-multi-choice,20
"[True, True, False]","[""Which player is trying to get the ball <b>into</b> the hole?"",""Which player is trying to <b>avoid</b> the hole?"",""How confident are you in your response to the previous two questions?""]","[""<span style='color: #4C4FE1'><b>Player B</b></span>"",""<span style='color: #E3B643'><b>Player Y</b></span>"",""a little""]",7143.0,947466,157,survey-multi-choice,20
"[True, False, True]","[""Which key should you press if you think the ball\nwill bounce off the back wall and then fly through\nthe hole in the center wall?"",""Which key should you press if you think the ball will\nbounce off the center wall, then the back wall,\nand then fly through the hole in the center wall?"",""What color is Player B's court?""]","[""q (yes)"",""q (yes)"",""blue""]",54551.0,124963,3,survey-multi-choice,21
"[True, True, True]","[""Which key should you press if you think the ball\nwill bounce off the back wall and then fly through\nthe hole in the center wall?"",""Which key should you press if you think the ball will\nbounce off the center wall, then the back wall,\nand then fly through the hole in the center wall?"",""What color is Player B's court?""]","[""q (yes)"",""p (no)"",""blue""]",44592.0,296840,5,survey-multi-choice,21
"[False, False, False]","[""Which player is trying to get the ball <b>into</b> the hole?"",""Which player is trying to <b>avoid</b> the hole?"",""How confident are you in your response to the previous two questions?""]","[""<span style='color: #53BA42'><b>Player G</b></span>"",""<span style='color: #E3B643'><b>Player Y</b></span>"",""somewhat""]",43759.0,630958,31,survey-multi-choice,21
"[True, True, False]","[""Which player is trying to get the ball <b>into</b> the hole?"",""Which player is trying to <b>avoid</b> the hole?"",""How confident are you in your response to the previous two questions?""]","[""<span style='color: #E3B643'><b>Player Y</b></span>"",""<span style='color: #53BA42'><b>Player G</b></span>"",""very""]",22858.0,769542,45,survey-multi-choice,21
"[True, False, False]","[""Which player is trying to get the ball <b>into</b> the hole?"",""Which player is trying to <b>avoid</b> the hole?"",""How confident are you in your response to the previous two questions?""]","[""<span style='color: #E3B643'><b>Player Y</b></span>"",""<span style='color: #4C4FE1'><b>Player B</b></span>"",""very""]",14870.0,883348,59,survey-multi-choice,21
"[True, True, False]","[""Which player is trying to get the ball <b>into</b> the hole?"",""Which player is trying to <b>avoid</b> the hole?"",""How confident are you in your response to the previous two questions?""]","[""<span style='color: #E3B643'><b>Player Y</b></span>"",""<span style='color: #53BA42'><b>Player G</b></span>"",""somewhat""]",18099.0,1000718,73,survey-multi-choice,21
"[True, True, False]","[""Which player is trying to get the ball <b>into</b> the hole?"",""Which player is trying to <b>avoid</b> the hole?"",""How confident are you in your response to the previous two questions?""]","[""<span style='color: #E3B643'><b>Player Y</b></span>"",""<span style='color: #53BA42'><b>Player G</b></span>"",""somewhat""]",30167.0,1132163,87,survey-multi-choice,21
"[False, True, True]","[""Which player is trying to get the ball <b>into</b> the hole?"",""Which player is trying to <b>avoid</b> the hole?"",""How confident are you in your response to the previous two questions?""]","[""<span style='color: #4C4FE1'><b>Player B</b></span>"",""<span style='color: #53BA42'><b>Player G</b></span>"",""certain""]",12716.0,1245855,101,survey-multi-choice,21
"[True, True, True]","[""Which player is trying to get the ball <b>into</b> the hole?"",""Which player is trying to <b>avoid</b> the hole?"",""How confident are you in your response to the previous two questions?""]","[""<span style='color: #E3B643'><b>Player Y</b></span>"",""<span style='color: #53BA42'><b>Player G</b></span>"",""certain""]",9798.0,1356123,115,survey-multi-choice,21
"[True, True, True]","[""Which player is trying to get the ball <b>into</b> the hole?"",""Which player is trying to <b>avoid</b> the hole?"",""How confident are you in your response to the previous two questions?""]","[""<span style='color: #E3B643'><b>Player Y</b></span>"",""<span style='color: #53BA42'><b>Player G</b></span>"",""certain""]",11959.0,1476710,129,survey-multi-choice,21
"[True, True, True]","[""Which player is trying to get the ball <b>into</b> the hole?"",""Which player is trying to <b>avoid</b> the hole?"",""How confident are you in your response to the previous two questions?""]","[""<span style='color: #E3B643'><b>Player Y</b></span>"",""<span style='color: #53BA42'><b>Player G</b></span>"",""certain""]",9274.0,1585657,142,survey-multi-choice,21
"[True, True, False]","[""Which player is trying to get the ball <b>into</b> the hole?"",""Which player is trying to <b>avoid</b> the hole?"",""How confident are you in your response to the previous two questions?""]","[""<span style='color: #E3B643'><b>Player Y</b></span>"",""<span style='color: #53BA42'><b>Player G</b></span>"",""very""]",22610.0,1700564,157,survey-multi-choice,21
"[True, True, True]","[""Which key should you press if you think the ball\nwill bounce off the back wall and then fly through\nthe hole in the center wall?"",""Which key should you press if you think the ball will\nbounce off the center wall, then the back wall,\nand then fly through the hole in the center wall?"",""What color is Player B's court?""]","[""q (yes)"",""p (no)"",""blue""]",8184.0,147501,3,survey-multi-choice,22
"[False, True, False]","[""Which player is trying to get the ball <b>into</b> the hole?"",""Which player is trying to <b>avoid</b> the hole?"",""How confident are you in your response to the previous two questions?""]","[""<span style='color: #53BA42'><b>Player G</b></span>"",""<span style='color: #E3B643'><b>Player Y</b></span>"",""very""]",6344.0,298132,29,survey-multi-choice,22
"[True, False, False]","[""Which player is trying to get the ball <b>into</b> the hole?"",""Which player is trying to <b>avoid</b> the hole?"",""How confident are you in your response to the previous two questions?""]","[""<span style='color: #4C4FE1'><b>Player B</b></span>"",""<span style='color: #53BA42'><b>Player G</b></span>"",""very""]",5842.0,361571,43,survey-multi-choice,22
"[True, False, False]","[""Which player is trying to get the ball <b>into</b> the hole?"",""Which player is trying to <b>avoid</b> the hole?"",""How confident are you in your response to the previous two questions?""]","[""<span style='color: #4C4FE1'><b>Player B</b></span>"",""<span style='color: #53BA42'><b>Player G</b></span>"",""very""]",5392.0,442076,57,survey-multi-choice,22
"[False, True, False]","[""Which player is trying to get the ball <b>into</b> the hole?"",""Which player is trying to <b>avoid</b> the hole?"",""How confident are you in your response to the previous two questions?""]","[""<span style='color: #53BA42'><b>Player G</b></span>"",""<span style='color: #E3B643'><b>Player Y</b></span>"",""very""]",5932.0,522580,71,survey-multi-choice,22
"[True, True, False]","[""Which player is trying to get the ball <b>into</b> the hole?"",""Which player is trying to <b>avoid</b> the hole?"",""How confident are you in your response to the previous two questions?""]","[""<span style='color: #4C4FE1'><b>Player B</b></span>"",""<span style='color: #E3B643'><b>Player Y</b></span>"",""somewhat""]",15379.0,617124,85,survey-multi-choice,22
"[False, True, False]","[""Which player is trying to get the ball <b>into</b> the hole?"",""Which player is trying to <b>avoid</b> the hole?"",""How confident are you in your response to the previous two questions?""]","[""<span style='color: #53BA42'><b>Player G</b></span>"",""<span style='color: #E3B643'><b>Player Y</b></span>"",""very""]",8116.0,728155,99,survey-multi-choice,22
"[False, True, False]","[""Which player is trying to get the ball <b>into</b> the hole?"",""Which player is trying to <b>avoid</b> the hole?"",""How confident are you in your response to the previous two questions?""]","[""<span style='color: #53BA42'><b>Player G</b></span>"",""<span style='color: #E3B643'><b>Player Y</b></span>"",""very""]",5403.0,807540,113,survey-multi-choice,22
"[False, True, False]","[""Which player is trying to get the ball <b>into</b> the hole?"",""Which player is trying to <b>avoid</b> the hole?"",""How confident are you in your response to the previous two questions?""]","[""<span style='color: #53BA42'><b>Player G</b></span>"",""<span style='color: #E3B643'><b>Player Y</b></span>"",""somewhat""]",5434.0,905492,127,survey-multi-choice,22
"[True, False, False]","[""Which player is trying to get the ball <b>into</b> the hole?"",""Which player is trying to <b>avoid</b> the hole?"",""How confident are you in your response to the previous two questions?""]","[""<span style='color: #4C4FE1'><b>Player B</b></span>"",""<span style='color: #53BA42'><b>Player G</b></span>"",""very""]",10240.0,1002395,140,survey-multi-choice,22
"[True, True, False]","[""Which player is trying to get the ball <b>into</b> the hole?"",""Which player is trying to <b>avoid</b> the hole?"",""How confident are you in your response to the previous two questions?""]","[""<span style='color: #4C4FE1'><b>Player B</b></span>"",""<span style='color: #E3B643'><b>Player Y</b></span>"",""very""]",8677.0,1106123,155,survey-multi-choice,22
"[True, False, False]","[""Which key should you press if you think the ball\nwill bounce off the back wall and then fly through\nthe hole in the center wall?"",""Which key should you press if you think the ball will\nbounce off the center wall, then the back wall,\nand then fly through the hole in the center wall?"",""What color is Player B's court?""]","[""q (yes)"",""q (yes)"",""yellow""]",11052.0,133253,3,survey-multi-choice,23
"[True, False, True]","[""Which key should you press if you think the ball\nwill bounce off the back wall and then fly through\nthe hole in the center wall?"",""Which key should you press if you think the ball will\nbounce off the center wall, then the back wall,\nand then fly through the hole in the center wall?"",""What color is Player B's court?""]","[""q (yes)"",""q (yes)"",""blue""]",10004.0,173788,5,survey-multi-choice,23
"[True, True, True]","[""Which key should you press if you think the ball\nwill bounce off the back wall and then fly through\nthe hole in the center wall?"",""Which key should you press if you think the ball will\nbounce off the center wall, then the back wall,\nand then fly through the hole in the center wall?"",""What color is Player B's court?""]","[""q (yes)"",""p (no)"",""blue""]",26173.0,211206,7,survey-multi-choice,23
"[True, True, False]","[""Which player is trying to get the ball <b>into</b> the hole?"",""Which player is trying to <b>avoid</b> the hole?"",""How confident are you in your response to the previous two questions?""]","[""<span style='color: #53BA42'><b>Player G</b></span>"",""<span style='color: #4C4FE1'><b>Player B</b></span>"",""not at all""]",24809.0,384415,33,survey-multi-choice,23
"[False, True, False]","[""Which player is trying to get the ball <b>into</b> the hole?"",""Which player is trying to <b>avoid</b> the hole?"",""How confident are you in your response to the previous two questions?""]","[""<span style='color: #E3B643'><b>Player Y</b></span>"",""<span style='color: #4C4FE1'><b>Player B</b></span>"",""a little""]",7543.0,438613,47,survey-multi-choice,23
"[True, True, False]","[""Which player is trying to get the ball <b>into</b> the hole?"",""Which player is trying to <b>avoid</b> the hole?"",""How confident are you in your response to the previous two questions?""]","[""<span style='color: #53BA42'><b>Player G</b></span>"",""<span style='color: #4C4FE1'><b>Player B</b></span>"",""a little""]",5549.0,486922,61,survey-multi-choice,23
"[True, True, False]","[""Which player is trying to get the ball <b>into</b> the hole?"",""Which player is trying to <b>avoid</b> the hole?"",""How confident are you in your response to the previous two questions?""]","[""<span style='color: #53BA42'><b>Player G</b></span>"",""<span style='color: #4C4FE1'><b>Player B</b></span>"",""not at all""]",8218.0,541057,75,survey-multi-choice,23
"[True, True, False]","[""Which player is trying to get the ball <b>into</b> the hole?"",""Which player is trying to <b>avoid</b> the hole?"",""How confident are you in your response to the previous two questions?""]","[""<span style='color: #53BA42'><b>Player G</b></span>"",""<span style='color: #4C4FE1'><b>Player B</b></span>"",""somewhat""]",6649.0,611079,89,survey-multi-choice,23
"[True, True, False]","[""Which player is trying to get the ball <b>into</b> the hole?"",""Which player is trying to <b>avoid</b> the hole?"",""How confident are you in your response to the previous two questions?""]","[""<span style='color: #53BA42'><b>Player G</b></span>"",""<span style='color: #4C4FE1'><b>Player B</b></span>"",""somewhat""]",6548.0,667326,103,survey-multi-choice,23
"[True, True, False]","[""Which player is trying to get the ball <b>into</b> the hole?"",""Which player is trying to <b>avoid</b> the hole?"",""How confident are you in your response to the previous two questions?""]","[""<span style='color: #53BA42'><b>Player G</b></span>"",""<span style='color: #4C4FE1'><b>Player B</b></span>"",""somewhat""]",5007.0,715982,117,survey-multi-choice,23
