block_idx,color_cue,condition,correct,cue_present,draw_trajectory,goes_in,good_cue,hole,key_press,kind,layout,num_bounces,response,rt,score,show_feedback,time_elapsed,trial,trial_index,trial_type,trials_completed,wall_cue,pid
0.0,False,6.0,False,True,True,False,True,instruct_1,,instruct,300_1.6,2.0,yes,13170.0,0.0,True,387629.0,1.0,5.0,ball,1.0,False,0
0.0,False,6.0,True,True,True,True,True,instruct_2,,instruct,0_1.6,1.0,yes,4008.0,1.0,True,396862.0,2.0,6.0,ball,2.0,False,0
0.0,False,6.0,True,True,True,False,True,instruct_4,,instruct,300_1.6,1.0,no,6667.0,2.0,True,408688.0,3.0,7.0,ball,3.0,False,0
0.0,False,6.0,True,True,True,False,True,instruct_5,,instruct,300_1.6,2.0,no,4454.0,3.0,True,419701.0,4.0,8.0,ball,4.0,False,0
0.0,False,6.0,False,True,True,True,True,instruct_3,,instruct,0_1.6,2.0,no,7087.0,3.0,True,432046.0,5.0,9.0,ball,5.0,False,0
0.0,False,6.0,True,True,True,False,True,instruct_0,,instruct,300_1.6,1.0,no,3755.0,4.0,True,440680.0,6.0,10.0,ball,6.0,False,0
0.0,False,6.0,True,True,True,True,True,instruct_6,,instruct,0_1.6,1.0,yes,3625.0,5.0,True,449801.0,7.0,11.0,ball,7.0,False,0
0.0,False,6.0,True,True,True,True,True,instruct_7,,instruct,0_1.6,2.0,yes,2429.0,6.0,True,457300.0,8.0,12.0,ball,8.0,False,0
1.0,background,6.0,True,True,True,True,True,easy_14,,easy,0_1.4,1.0,yes,3552.0,1.0,False,543855.0,1.0,16.0,ball,9.0,False,0
1.0,background,6.0,True,False,True,True,True,easy_10,,easy,0_1.4,1.0,yes,5322.0,2.0,False,552604.0,2.0,17.0,ball,10.0,False,0
1.0,background,6.0,False,False,True,True,True,easy_3,,easy,0_1.4,1.0,no,4581.0,2.0,False,560879.0,3.0,18.0,ball,11.0,False,0
1.0,background,6.0,True,False,True,False,True,easy_5,,easy,300_1.4,1.0,no,3434.0,3.0,False,568175.0,4.0,19.0,ball,12.0,False,0
1.0,background,6.0,True,False,True,False,True,easy_4,,easy,300_1.4,1.0,no,6138.0,4.0,False,576177.0,5.0,20.0,ball,13.0,False,0
1.0,background,6.0,True,False,True,True,True,easy_2,,easy,0_1.4,1.0,yes,2849.0,5.0,False,581514.0,6.0,21.0,ball,14.0,False,0
1.0,background,6.0,True,False,True,False,True,easy_0,,easy,300_1.4,1.0,no,3371.0,6.0,False,587591.0,7.0,22.0,ball,15.0,False,0
1.0,background,6.0,True,True,True,True,True,easy_11,,easy,0_1.4,1.0,yes,2660.0,7.0,False,592681.0,8.0,23.0,ball,16.0,False,0
1.0,background,6.0,True,True,True,False,True,easy_8,,easy,300_1.4,1.0,no,2962.0,8.0,False,598141.0,9.0,24.0,ball,17.0,False,0
1.0,background,6.0,True,True,True,False,True,easy_1,,easy,300_1.4,1.0,no,2791.0,9.0,False,603344.0,10.0,25.0,ball,18.0,False,0
1.0,background,6.0,True,True,True,False,True,easy_12,,easy,300_1.4,1.0,no,2583.0,10.0,False,608402.0,11.0,26.0,ball,19.0,False,0
1.0,background,6.0,True,True,True,True,True,easy_6,,easy,0_1.4,1.0,yes,6767.0,11.0,False,617740.0,12.0,27.0,ball,20.0,False,0
1.0,background,6.0,True,True,True,True,True,control_0,,control,control,0.0,yes,1411.0,12.0,False,621062.0,13.0,28.0,ball,21.0,False,0
2.0,background,6.0,True,False,True,False,True,standard_17,,standard,200_2.2,2.0,no,2465.0,1.0,False,630401.0,1.0,30.0,ball,22.0,False,0
2.0,background,6.0,True,False,True,False,True,easy_9,,easy,300_1.4,1.0,no,2290.0,2.0,False,634918.0,2.0,31.0,ball,23.0,False,0
2.0,background,6.0,True,False,True,True,True,easy_11,,easy,0_1.4,1.0,yes,1635.0,3.0,False,638298.0,3.0,32.0,ball,24.0,False,0
2.0,background,6.0,True,True,True,True,True,control_6,,control,control,0.0,yes,1098.0,4.0,False,641407.0,4.0,33.0,ball,25.0,False,0
2.0,background,6.0,True,True,True,True,True,easy_7,,easy,0_1.4,1.0,yes,2665.0,5.0,False,646530.0,5.0,34.0,ball,26.0,False,0
2.0,background,6.0,True,True,True,True,True,easy_10,,easy,0_1.4,1.0,yes,2006.0,6.0,False,650395.0,6.0,35.0,ball,27.0,False,0
2.0,background,6.0,True,False,True,False,True,easy_12,,easy,300_1.4,1.0,no,1851.0,7.0,False,654175.0,7.0,36.0,ball,28.0,False,0
2.0,background,6.0,True,True,True,False,True,easy_13,,easy,300_1.4,1.0,no,7333.0,8.0,False,663383.0,8.0,37.0,ball,29.0,False,0
2.0,background,6.0,False,False,True,True,True,easy_6,,easy,0_1.4,1.0,no,2135.0,8.0,False,667353.0,9.0,38.0,ball,30.0,False,0
2.0,background,6.0,True,True,True,False,True,standard_20,,standard,200_2.2,1.0,no,3291.0,9.0,False,672308.0,10.0,39.0,ball,31.0,False,0
2.0,background,6.0,False,True,True,True,True,standard_2,,standard,0_2.2,1.0,no,2482.0,9.0,False,676695.0,11.0,40.0,ball,32.0,False,0
2.0,background,6.0,True,True,True,False,True,easy_0,,easy,300_1.4,1.0,no,1587.0,10.0,False,679974.0,12.0,41.0,ball,33.0,False,0
2.0,background,6.0,True,True,True,False,True,easy_4,,easy,300_1.4,1.0,no,5280.0,11.0,False,687150.0,13.0,42.0,ball,34.0,False,0
3.0,background,6.0,True,False,True,False,True,standard_5,,standard,200_2.2,2.0,no,3435.0,1.0,False,706096.0,1.0,44.0,ball,35.0,False,0
3.0,background,6.0,True,True,True,True,True,easy_3,,easy,0_1.4,1.0,yes,2887.0,2.0,False,710814.0,2.0,45.0,ball,36.0,False,0
3.0,background,6.0,True,False,True,False,True,easy_1,,easy,300_1.4,1.0,no,1494.0,3.0,False,714042.0,3.0,46.0,ball,37.0,False,0
3.0,background,6.0,False,True,True,True,True,standard_18,,standard,0_2.2,1.0,no,3580.0,3.0,False,719395.0,4.0,47.0,ball,38.0,False,0
3.0,background,6.0,True,False,True,True,True,easy_14,,easy,0_1.4,1.0,yes,2450.0,4.0,False,723631.0,5.0,48.0,ball,39.0,False,0
3.0,background,6.0,True,True,True,False,True,control_7,,control,control,0.0,no,1343.0,5.0,False,726739.0,6.0,49.0,ball,40.0,False,0
3.0,background,6.0,False,False,True,True,True,standard_3,,standard,0_2.2,2.0,no,4406.0,5.0,False,732914.0,7.0,50.0,ball,41.0,False,0
3.0,background,6.0,True,True,True,True,True,standard_10,,standard,0_2.2,1.0,yes,2949.0,6.0,False,737727.0,8.0,51.0,ball,42.0,False,0
3.0,background,6.0,True,True,True,False,True,easy_5,,easy,300_1.4,1.0,no,2004.0,7.0,False,741638.0,9.0,52.0,ball,43.0,False,0
3.0,background,6.0,True,False,True,False,True,easy_8,,easy,300_1.4,1.0,no,1631.0,8.0,False,745137.0,10.0,53.0,ball,44.0,False,0
3.0,background,6.0,True,False,True,True,True,standard_7,,standard,0_2.2,2.0,yes,3130.0,9.0,False,750090.0,11.0,54.0,ball,45.0,False,0
3.0,background,6.0,True,True,True,True,True,easy_2,,easy,0_1.4,1.0,yes,1224.0,10.0,False,753172.0,12.0,55.0,ball,46.0,False,0
3.0,background,6.0,True,True,True,False,True,standard_12,,standard,200_2.2,1.0,no,1660.0,11.0,False,756516.0,13.0,56.0,ball,47.0,False,0
4.0,background,6.0,True,False,True,True,True,easy_7,,easy,0_1.4,1.0,yes,3341.0,1.0,False,764127.0,1.0,58.0,ball,48.0,False,0
4.0,background,6.0,True,False,True,False,True,standard_0,,standard,200_2.2,1.0,no,1634.0,2.0,False,767571.0,2.0,59.0,ball,49.0,False,0
4.0,background,6.0,True,True,True,True,True,control_4,,control,control,0.0,yes,1099.0,3.0,False,770468.0,3.0,60.0,ball,50.0,False,0
4.0,background,6.0,True,False,True,False,True,standard_16,,standard,200_2.2,1.0,no,1062.0,4.0,False,773418.0,4.0,61.0,ball,51.0,False,0
4.0,background,6.0,True,True,True,False,True,standard_8,,standard,200_2.2,1.0,no,2055.0,5.0,False,777141.0,5.0,62.0,ball,52.0,False,0
4.0,background,6.0,True,False,True,True,True,standard_11,,standard,0_2.2,2.0,yes,2535.0,6.0,False,781377.0,6.0,63.0,ball,53.0,False,0
4.0,background,6.0,True,False,True,True,True,standard_22,,standard,0_2.2,1.0,yes,4739.0,7.0,False,787853.0,7.0,64.0,ball,54.0,False,0
4.0,background,6.0,False,False,True,True,True,standard_19,,standard,0_2.2,2.0,no,1694.0,7.0,False,791556.0,8.0,65.0,ball,55.0,False,0
4.0,background,6.0,False,True,True,True,True,standard_15,,standard,0_2.2,2.0,no,3194.0,7.0,False,796499.0,9.0,66.0,ball,56.0,False,0
4.0,background,6.0,True,False,True,False,True,easy_13,,easy,300_1.4,1.0,no,1571.0,8.0,False,799714.0,10.0,67.0,ball,57.0,False,0
4.0,background,6.0,True,True,True,True,True,standard_14,,standard,0_2.2,1.0,yes,8633.0,9.0,False,810301.0,11.0,68.0,ball,58.0,False,0
4.0,background,6.0,True,True,True,False,True,easy_9,,easy,300_1.4,1.0,no,2360.0,10.0,False,841538.0,12.0,69.0,ball,59.0,False,0
4.0,background,6.0,False,True,True,True,True,standard_6,,standard,0_2.2,1.0,no,4224.0,10.0,False,847486.0,13.0,70.0,ball,60.0,False,0
5.0,background,6.0,True,True,True,False,True,standard_17,,standard,200_2.2,2.0,no,1647.0,1.0,False,853645.0,1.0,72.0,ball,61.0,False,0
5.0,background,6.0,True,False,True,False,True,standard_21,,standard,200_2.2,2.0,no,3103.0,2.0,False,858521.0,2.0,73.0,ball,62.0,False,0
5.0,background,6.0,False,True,True,True,True,standard_23,,standard,0_2.2,2.0,no,1567.0,2.0,False,861915.0,3.0,74.0,ball,63.0,False,0
5.0,background,6.0,True,True,True,True,True,standard_7,,standard,0_2.2,2.0,yes,1774.0,3.0,False,865362.0,4.0,75.0,ball,64.0,False,0
5.0,background,6.0,True,False,True,True,True,standard_10,,standard,0_2.2,1.0,yes,964.0,4.0,False,868059.0,5.0,76.0,ball,65.0,False,0
5.0,background,6.0,True,True,True,False,True,standard_1,,standard,200_2.2,2.0,no,4713.0,5.0,False,874562.0,6.0,77.0,ball,66.0,False,0
5.0,background,6.0,True,True,True,False,True,control_3,,control,control,0.0,no,4780.0,6.0,False,881524.0,7.0,78.0,ball,67.0,False,0
5.0,background,6.0,True,True,True,False,True,standard_4,,standard,200_2.2,1.0,no,3076.0,7.0,False,886637.0,8.0,79.0,ball,68.0,False,0
5.0,background,6.0,True,False,True,False,True,standard_20,,standard,200_2.2,1.0,no,1355.0,8.0,False,889750.0,9.0,80.0,ball,69.0,False,0
5.0,background,6.0,True,False,True,False,True,standard_13,,standard,200_2.2,2.0,no,5579.0,9.0,False,896961.0,10.0,81.0,ball,70.0,False,0
5.0,background,6.0,True,False,True,True,True,standard_2,,standard,0_2.2,1.0,yes,1351.0,10.0,False,900024.0,11.0,82.0,ball,71.0,False,0
5.0,background,6.0,True,True,True,True,True,standard_3,,standard,0_2.2,2.0,yes,1551.0,11.0,False,903578.0,12.0,83.0,ball,72.0,False,0
5.0,background,6.0,False,False,True,False,True,standard_9,,standard,200_2.2,2.0,yes,3952.0,11.0,False,909299.0,13.0,84.0,ball,73.0,False,0
6.0,background,6.0,True,True,True,False,True,standard_5,,standard,200_2.2,2.0,no,4336.0,1.0,False,924810.0,1.0,86.0,ball,74.0,False,0
6.0,background,6.0,False,False,True,True,True,hard_14,,hard,0_3.2,2.0,no,904.0,1.0,False,928405.0,2.0,87.0,ball,75.0,False,0
6.0,background,6.0,False,True,True,False,True,standard_0,,standard,200_2.2,1.0,yes,4486.0,1.0,False,934705.0,3.0,88.0,ball,76.0,False,0
6.0,background,6.0,True,True,True,True,True,control_2,,control,control,0.0,yes,919.0,2.0,False,937593.0,4.0,89.0,ball,77.0,False,0
6.0,background,6.0,True,True,True,True,True,standard_22,,standard,0_2.2,1.0,yes,1347.0,3.0,False,941338.0,5.0,90.0,ball,78.0,False,0
6.0,background,6.0,True,True,True,False,True,hard_8,,hard,100_3.2,2.0,no,920.0,4.0,False,944280.0,6.0,91.0,ball,79.0,False,0
6.0,background,6.0,False,False,True,True,True,standard_18,,standard,0_2.2,1.0,no,971.0,4.0,False,946945.0,7.0,92.0,ball,80.0,False,0
6.0,background,6.0,True,True,True,False,True,standard_16,,standard,200_2.2,1.0,no,1083.0,5.0,False,949712.0,8.0,93.0,ball,81.0,False,0
6.0,background,6.0,True,False,True,True,True,standard_14,,standard,0_2.2,1.0,yes,1201.0,6.0,False,952897.0,9.0,94.0,ball,82.0,False,0
6.0,background,6.0,False,False,True,True,True,standard_15,,standard,0_2.2,2.0,no,1547.0,6.0,False,956413.0,10.0,95.0,ball,83.0,False,0
6.0,background,6.0,True,True,True,False,True,hard_13,,hard,100_3.2,2.0,no,1111.0,7.0,False,959166.0,11.0,96.0,ball,84.0,False,0
6.0,background,6.0,True,False,True,False,True,standard_12,,standard,200_2.2,1.0,no,2462.0,8.0,False,963279.0,12.0,97.0,ball,85.0,False,0
6.0,background,6.0,True,True,True,True,True,standard_19,,standard,0_2.2,2.0,yes,3264.0,9.0,False,968161.0,13.0,98.0,ball,86.0,False,0
7.0,background,6.0,False,False,True,True,True,hard_11,,hard,0_3.2,2.0,no,1895.0,0.0,False,974987.0,1.0,100.0,ball,87.0,False,0
7.0,background,6.0,True,True,True,False,True,control_5,,control,control,0.0,no,1901.0,1.0,False,978687.0,2.0,101.0,ball,88.0,False,0
7.0,background,6.0,True,False,True,False,True,hard_4,,hard,100_3.2,2.0,no,1737.0,2.0,False,992564.0,3.0,102.0,ball,89.0,False,0
7.0,background,6.0,True,True,True,True,True,standard_11,,standard,0_2.2,2.0,yes,972.0,3.0,False,995490.0,4.0,103.0,ball,90.0,False,0
7.0,background,6.0,True,True,True,False,True,standard_21,,standard,200_2.2,2.0,no,1767.0,4.0,False,999012.0,5.0,104.0,ball,91.0,False,0
7.0,background,6.0,True,False,True,False,True,standard_1,,standard,200_2.2,2.0,no,794.0,5.0,False,1001594.0,6.0,105.0,ball,92.0,False,0
7.0,background,6.0,True,False,True,False,True,standard_8,,standard,200_2.2,1.0,no,1502.0,6.0,False,1004806.0,7.0,106.0,ball,93.0,False,0
7.0,background,6.0,False,False,True,True,True,hard_2,,hard,0_3.2,2.0,no,1229.0,6.0,False,1007631.0,8.0,107.0,ball,94.0,False,0
7.0,background,6.0,False,True,True,False,True,hard_1,,hard,100_3.2,2.0,yes,2690.0,6.0,False,1011973.0,9.0,108.0,ball,95.0,False,0
7.0,background,6.0,True,True,True,False,True,hard_12,,hard,100_3.2,2.0,no,1065.0,7.0,False,1014898.0,10.0,109.0,ball,96.0,False,0
7.0,background,6.0,True,False,True,True,True,standard_6,,standard,0_2.2,1.0,yes,1080.0,8.0,False,1017848.0,11.0,110.0,ball,97.0,False,0
7.0,background,6.0,False,True,True,False,True,standard_13,,standard,200_2.2,2.0,yes,1441.0,8.0,False,1021429.0,12.0,111.0,ball,98.0,False,0
7.0,background,6.0,True,True,True,False,True,hard_5,,hard,100_3.2,2.0,no,615.0,9.0,False,1024501.0,13.0,112.0,ball,99.0,False,0
8.0,background,6.0,True,True,True,False,True,hard_9,,hard,100_3.2,2.0,no,804.0,1.0,False,1029568.0,1.0,114.0,ball,100.0,False,0
8.0,background,6.0,False,False,True,False,True,hard_8,,hard,100_3.2,2.0,yes,1999.0,1.0,False,1033268.0,2.0,115.0,ball,101.0,False,0
8.0,background,6.0,False,True,True,False,True,standard_9,,standard,200_2.2,2.0,yes,1108.0,1.0,False,1036047.0,3.0,116.0,ball,102.0,False,0
8.0,background,6.0,False,True,True,True,True,hard_6,,hard,0_3.2,2.0,no,1371.0,1.0,False,1039103.0,4.0,117.0,ball,103.0,False,0
8.0,background,6.0,True,True,True,False,True,control_1,,control,control,0.0,no,968.0,2.0,False,1041703.0,5.0,118.0,ball,104.0,False,0
8.0,background,6.0,False,False,True,True,True,hard_7,,hard,0_3.2,2.0,no,1754.0,2.0,False,1045125.0,6.0,119.0,ball,105.0,False,0
8.0,background,6.0,False,False,True,True,True,hard_3,,hard,0_3.2,2.0,no,940.0,2.0,False,1047953.0,7.0,120.0,ball,106.0,False,0
8.0,background,6.0,False,False,True,False,True,hard_13,,hard,100_3.2,2.0,yes,3061.0,2.0,False,1052890.0,8.0,121.0,ball,107.0,False,0
8.0,background,6.0,False,True,True,True,True,hard_14,,hard,0_3.2,2.0,no,1331.0,2.0,False,1056006.0,9.0,122.0,ball,108.0,False,0
8.0,background,6.0,False,False,True,True,True,standard_23,,standard,0_2.2,2.0,no,1155.0,2.0,False,1058830.0,10.0,123.0,ball,109.0,False,0
8.0,background,6.0,False,True,True,True,True,hard_10,,hard,0_3.2,2.0,no,1672.0,2.0,False,1062203.0,11.0,124.0,ball,110.0,False,0
8.0,background,6.0,True,False,True,False,True,hard_0,,hard,100_3.2,2.0,no,2280.0,3.0,False,1065949.0,12.0,125.0,ball,111.0,False,0
8.0,background,6.0,True,False,True,False,True,standard_4,,standard,200_2.2,1.0,no,1615.0,4.0,False,1069265.0,13.0,126.0,ball,112.0,False,0
9.0,background,6.0,True,False,True,False,True,hard_1,,hard,100_3.2,2.0,no,1085.0,1.0,False,1177860.0,1.0,128.0,ball,113.0,False,0
9.0,background,6.0,True,True,True,True,True,hard_7,,hard,0_3.2,2.0,yes,4102.0,2.0,False,1183737.0,2.0,129.0,ball,114.0,False,0
9.0,background,6.0,False,False,True,False,True,hard_5,,hard,100_3.2,2.0,yes,4203.0,2.0,False,1189726.0,3.0,130.0,ball,115.0,False,0
9.0,background,6.0,False,True,True,True,True,hard_3,,hard,0_3.2,2.0,no,1298.0,2.0,False,1193328.0,4.0,131.0,ball,116.0,False,0
9.0,background,6.0,False,True,True,False,True,hard_0,,hard,100_3.2,2.0,yes,1560.0,2.0,False,1196542.0,5.0,132.0,ball,117.0,False,0
9.0,background,6.0,True,False,True,False,True,hard_12,,hard,100_3.2,2.0,no,1766.0,3.0,False,1200002.0,6.0,133.0,ball,118.0,False,0
9.0,background,6.0,False,False,True,True,True,hard_6,,hard,0_3.2,2.0,no,4577.0,3.0,False,1206256.0,7.0,134.0,ball,119.0,False,0
9.0,background,6.0,False,True,True,True,True,hard_2,,hard,0_3.2,2.0,no,1033.0,3.0,False,1208998.0,8.0,135.0,ball,120.0,False,0
9.0,background,6.0,True,False,True,False,True,hard_9,,hard,100_3.2,2.0,no,2111.0,4.0,False,1212767.0,9.0,136.0,ball,121.0,False,0
9.0,background,6.0,True,True,True,False,True,hard_4,,hard,100_3.2,2.0,no,1001.0,5.0,False,1215488.0,10.0,137.0,ball,122.0,False,0
9.0,background,6.0,True,True,True,True,True,hard_11,,hard,0_3.2,2.0,yes,2974.0,6.0,False,1220208.0,11.0,138.0,ball,123.0,False,0
9.0,background,6.0,False,False,True,True,True,hard_10,,hard,0_3.2,2.0,no,1292.0,6.0,False,1225486.0,12.0,139.0,ball,124.0,False,0
10.0,background,6.0,False,True,True,True,True,critical_4,,critical,0_3.2,2.0,no,2774.0,0.0,False,1254653.0,1.0,141.0,ball,125.0,False,0
10.0,background,6.0,False,True,True,False,True,critical_5,,critical,100_3.2,2.0,yes,2436.0,0.0,False,1258758.0,2.0,142.0,ball,126.0,False,0
10.0,background,6.0,True,True,True,True,True,critical_6,,critical,0_3.2,2.0,yes,2157.0,1.0,False,1262559.0,3.0,143.0,ball,127.0,False,0
10.0,background,6.0,True,True,True,False,True,critical_7,,critical,100_3.2,2.0,no,3914.0,2.0,False,1268170.0,4.0,144.0,ball,128.0,False,0
10.0,background,6.0,True,True,True,True,False,critical_0,,critical,0_3.2,2.0,yes,3056.0,3.0,False,1272993.0,5.0,145.0,ball,129.0,False,0
10.0,background,6.0,True,True,True,True,True,filler_3,,filler,0_2.2,2.0,yes,1559.0,4.0,False,1276225.0,6.0,146.0,ball,130.0,False,0
10.0,background,6.0,True,True,True,False,True,filler_5,,filler,200_2.2,2.0,no,1404.0,5.0,False,1279215.0,7.0,147.0,ball,131.0,False,0
10.0,background,6.0,True,True,True,False,False,critical_1,,critical,100_3.2,2.0,no,2535.0,6.0,False,1283478.0,8.0,148.0,ball,132.0,False,0
10.0,background,6.0,True,True,True,False,True,filler_0,,filler,200_2.2,1.0,no,1348.0,7.0,False,1286438.0,9.0,149.0,ball,133.0,False,0
10.0,background,6.0,True,True,True,False,True,filler_4,,filler,200_2.2,1.0,no,1880.0,8.0,False,1290140.0,10.0,150.0,ball,134.0,False,0
10.0,background,6.0,False,True,True,True,False,critical_2,,critical,0_3.2,2.0,no,5428.0,8.0,False,1297237.0,11.0,151.0,ball,135.0,False,0
10.0,background,6.0,True,True,True,True,True,filler_2,,filler,0_2.2,1.0,yes,2365.0,9.0,False,1301489.0,12.0,152.0,ball,136.0,False,0
10.0,background,6.0,True,True,True,False,True,filler_1,,filler,200_2.2,2.0,no,2172.0,10.0,False,1305453.0,13.0,153.0,ball,137.0,False,0
10.0,background,6.0,True,True,True,False,False,critical_3,,critical,100_3.2,2.0,no,3601.0,11.0,False,1310778.0,14.0,154.0,ball,138.0,False,0
0.0,False,19.0,True,True,True,True,True,instruct_2,,instruct,0_1.6,1.0,yes,4711.0,1.0,True,196551.0,1.0,7.0,ball,1.0,False,1
0.0,False,19.0,True,True,True,False,True,instruct_1,,instruct,300_1.6,2.0,no,1724.0,2.0,True,203271.0,2.0,8.0,ball,2.0,False,1
0.0,False,19.0,True,True,True,True,True,instruct_7,,instruct,0_1.6,2.0,yes,1675.0,3.0,True,209240.0,3.0,9.0,ball,3.0,False,1
0.0,False,19.0,True,True,True,True,True,instruct_6,,instruct,0_1.6,1.0,yes,817.0,4.0,True,214340.0,4.0,10.0,ball,4.0,False,1
0.0,False,19.0,True,True,True,False,True,instruct_4,,instruct,300_1.6,1.0,no,1515.0,5.0,True,220196.0,5.0,11.0,ball,5.0,False,1
0.0,False,19.0,True,True,True,False,True,instruct_0,,instruct,300_1.6,1.0,no,1725.0,6.0,True,226409.0,6.0,12.0,ball,6.0,False,1
0.0,False,19.0,False,True,True,True,True,instruct_3,,instruct,0_1.6,2.0,no,1608.0,6.0,True,232194.0,7.0,13.0,ball,7.0,False,1
0.0,False,19.0,True,True,True,False,True,instruct_5,,instruct,300_1.6,2.0,no,982.0,7.0,True,237570.0,8.0,14.0,ball,8.0,False,1
1.0,background,19.0,True,True,True,False,True,easy_8,,easy,300_1.4,1.0,no,901.0,1.0,True,255225.0,1.0,18.0,ball,9.0,False,1
1.0,background,19.0,True,True,True,True,True,easy_7,,easy,0_1.4,1.0,yes,1560.0,2.0,True,264970.0,2.0,19.0,ball,10.0,False,1
1.0,background,19.0,True,True,True,False,True,control_3,,control,control,0.0,no,1370.0,3.0,True,271228.0,3.0,20.0,ball,11.0,False,1
1.0,background,19.0,True,True,True,True,True,easy_2,,easy,0_1.4,1.0,yes,1187.0,4.0,True,277284.0,4.0,21.0,ball,12.0,False,1
1.0,background,19.0,False,False,True,False,True,easy_13,,easy,300_1.4,1.0,yes,1596.0,4.0,True,282953.0,5.0,22.0,ball,13.0,False,1
1.0,background,19.0,False,False,True,True,True,easy_6,,easy,0_1.4,1.0,no,1734.0,4.0,True,288923.0,6.0,23.0,ball,14.0,False,1
1.0,background,19.0,False,False,True,False,True,easy_4,,easy,300_1.4,1.0,yes,1179.0,4.0,True,294216.0,7.0,24.0,ball,15.0,False,1
1.0,background,19.0,True,True,True,False,True,easy_5,,easy,300_1.4,1.0,no,2035.0,5.0,True,300470.0,8.0,25.0,ball,16.0,False,1
1.0,background,19.0,True,False,True,True,True,easy_11,,easy,0_1.4,1.0,yes,1025.0,6.0,True,305528.0,9.0,26.0,ball,17.0,False,1
1.0,background,19.0,True,True,True,False,True,easy_0,,easy,300_1.4,1.0,no,928.0,7.0,True,310470.0,10.0,27.0,ball,18.0,False,1
1.0,background,19.0,True,False,True,False,True,easy_9,,easy,300_1.4,1.0,no,951.0,8.0,True,315502.0,11.0,28.0,ball,19.0,False,1
1.0,background,19.0,True,False,True,True,True,easy_3,,easy,0_1.4,1.0,yes,1591.0,9.0,True,321324.0,12.0,29.0,ball,20.0,False,1
1.0,background,19.0,False,True,True,False,True,easy_1,,easy,300_1.4,1.0,yes,883.0,9.0,True,330213.0,13.0,30.0,ball,21.0,False,1
2.0,background,19.0,True,False,True,False,True,easy_0,,easy,300_1.4,1.0,no,1438.0,1.0,True,338871.0,1.0,32.0,ball,22.0,False,1
2.0,background,19.0,True,False,True,False,True,easy_5,,easy,300_1.4,1.0,no,762.0,2.0,True,343624.0,2.0,33.0,ball,23.0,False,1
2.0,background,19.0,False,True,True,True,True,easy_6,,easy,0_1.4,1.0,no,1389.0,2.0,True,349145.0,3.0,34.0,ball,24.0,False,1
2.0,background,19.0,True,False,True,False,True,standard_1,,standard,200_2.2,2.0,no,630.0,3.0,True,355455.0,4.0,35.0,ball,25.0,False,1
2.0,background,19.0,True,True,True,True,True,easy_14,,easy,0_1.4,1.0,yes,1804.0,4.0,True,365603.0,5.0,36.0,ball,26.0,False,1
2.0,background,19.0,True,True,True,False,True,easy_9,,easy,300_1.4,1.0,no,745.0,5.0,True,370789.0,6.0,37.0,ball,27.0,False,1
2.0,background,19.0,True,True,True,True,True,standard_2,,standard,0_2.2,1.0,yes,945.0,6.0,True,381167.0,7.0,38.0,ball,28.0,False,1
2.0,background,19.0,True,True,True,True,True,standard_22,,standard,0_2.2,1.0,yes,812.0,7.0,True,387544.0,8.0,39.0,ball,29.0,False,1
2.0,background,19.0,True,False,True,True,True,easy_10,,easy,0_1.4,1.0,yes,1559.0,8.0,True,393121.0,9.0,40.0,ball,30.0,False,1
2.0,background,19.0,True,True,True,True,True,control_0,,control,control,0.0,yes,893.0,9.0,True,397278.0,10.0,41.0,ball,31.0,False,1
2.0,background,19.0,True,True,True,False,True,easy_12,,easy,300_1.4,1.0,no,1559.0,10.0,True,403434.0,11.0,42.0,ball,32.0,False,1
2.0,background,19.0,True,False,True,False,True,easy_8,,easy,300_1.4,1.0,no,947.0,11.0,True,408196.0,12.0,43.0,ball,33.0,False,1
2.0,background,19.0,True,True,True,True,True,easy_3,,easy,0_1.4,1.0,yes,1153.0,12.0,True,413400.0,13.0,44.0,ball,34.0,False,1
3.0,background,19.0,False,True,True,False,True,easy_4,,easy,300_1.4,1.0,yes,891.0,0.0,True,452007.0,1.0,46.0,ball,35.0,False,1
3.0,background,19.0,True,True,True,True,True,easy_11,,easy,0_1.4,1.0,yes,703.0,1.0,True,456960.0,2.0,47.0,ball,36.0,False,1
3.0,background,19.0,True,True,True,True,True,control_2,,control,control,0.0,yes,693.0,2.0,True,460831.0,3.0,48.0,ball,37.0,False,1
3.0,background,19.0,False,False,True,True,True,standard_23,,standard,0_2.2,2.0,no,1403.0,2.0,True,468514.0,4.0,49.0,ball,38.0,False,1
3.0,background,19.0,False,True,True,False,True,standard_8,,standard,200_2.2,1.0,yes,1531.0,2.0,True,474658.0,5.0,50.0,ball,39.0,False,1
3.0,background,19.0,True,False,True,False,True,easy_1,,easy,300_1.4,1.0,no,604.0,3.0,True,479360.0,6.0,51.0,ball,40.0,False,1
3.0,background,19.0,True,False,True,False,True,standard_16,,standard,200_2.2,1.0,no,1806.0,4.0,True,486301.0,7.0,52.0,ball,41.0,False,1
3.0,background,19.0,False,True,True,True,True,standard_18,,standard,0_2.2,1.0,no,2812.0,4.0,True,493938.0,8.0,53.0,ball,42.0,False,1
3.0,background,19.0,True,True,True,False,True,standard_4,,standard,200_2.2,1.0,no,1752.0,5.0,True,500385.0,9.0,54.0,ball,43.0,False,1
3.0,background,19.0,True,False,True,False,True,standard_9,,standard,200_2.2,2.0,no,689.0,6.0,True,505676.0,10.0,55.0,ball,44.0,False,1
3.0,background,19.0,True,False,True,True,True,easy_2,,easy,0_1.4,1.0,yes,577.0,7.0,True,510088.0,11.0,56.0,ball,45.0,False,1
3.0,background,19.0,True,False,True,True,True,easy_7,,easy,0_1.4,1.0,yes,717.0,8.0,True,514815.0,12.0,57.0,ball,46.0,False,1
3.0,background,19.0,True,True,True,False,True,easy_13,,easy,300_1.4,1.0,no,563.0,9.0,True,519933.0,13.0,58.0,ball,47.0,False,1
4.0,background,19.0,True,False,True,False,True,standard_13,,standard,200_2.2,2.0,no,851.0,1.0,True,605766.0,1.0,60.0,ball,48.0,False,1
4.0,background,19.0,False,False,True,False,True,standard_12,,standard,200_2.2,1.0,yes,996.0,1.0,True,611927.0,2.0,61.0,ball,49.0,False,1
4.0,background,19.0,True,True,True,False,True,control_1,,control,control,0.0,no,955.0,2.0,True,616135.0,3.0,62.0,ball,50.0,False,1
4.0,background,19.0,True,True,True,True,True,easy_10,,easy,0_1.4,1.0,yes,1005.0,3.0,True,621533.0,4.0,63.0,ball,51.0,False,1
4.0,background,19.0,False,False,True,True,True,standard_6,,standard,0_2.2,1.0,no,1564.0,3.0,True,627841.0,5.0,64.0,ball,52.0,False,1
4.0,background,19.0,True,False,True,False,True,standard_17,,standard,200_2.2,2.0,no,657.0,4.0,True,633160.0,6.0,65.0,ball,53.0,False,1
4.0,background,19.0,True,False,True,False,True,easy_12,,easy,300_1.4,1.0,no,1045.0,5.0,True,638136.0,7.0,66.0,ball,54.0,False,1
4.0,background,19.0,True,True,True,False,True,standard_21,,standard,200_2.2,2.0,no,1006.0,6.0,True,644295.0,8.0,67.0,ball,55.0,False,1
4.0,background,19.0,True,True,True,False,True,standard_0,,standard,200_2.2,1.0,no,841.0,7.0,True,650037.0,9.0,68.0,ball,56.0,False,1
4.0,background,19.0,True,True,True,True,True,standard_15,,standard,0_2.2,2.0,yes,580.0,8.0,True,655609.0,10.0,69.0,ball,57.0,False,1
4.0,background,19.0,False,False,True,True,True,standard_3,,standard,0_2.2,2.0,no,948.0,8.0,True,661168.0,11.0,70.0,ball,58.0,False,1
4.0,background,19.0,True,True,True,True,True,standard_10,,standard,0_2.2,1.0,yes,1140.0,9.0,True,666973.0,12.0,71.0,ball,59.0,False,1
4.0,background,19.0,True,False,True,True,True,easy_14,,easy,0_1.4,1.0,yes,2199.0,10.0,True,673383.0,13.0,72.0,ball,60.0,False,1
5.0,background,19.0,False,False,True,True,True,standard_7,,standard,0_2.2,2.0,no,835.0,0.0,True,681508.0,1.0,74.0,ball,61.0,False,1
5.0,background,19.0,True,True,True,False,True,standard_1,,standard,200_2.2,2.0,no,904.0,1.0,True,687204.0,2.0,75.0,ball,62.0,False,1
5.0,background,19.0,True,True,True,True,True,standard_14,,standard,0_2.2,1.0,yes,926.0,2.0,True,693128.0,3.0,76.0,ball,63.0,False,1
5.0,background,19.0,True,False,True,True,True,standard_2,,standard,0_2.2,1.0,yes,779.0,3.0,True,698548.0,4.0,77.0,ball,64.0,False,1
5.0,background,19.0,False,False,True,True,True,standard_19,,standard,0_2.2,2.0,no,1817.0,3.0,True,706757.0,5.0,78.0,ball,65.0,False,1
5.0,background,19.0,True,False,True,True,True,standard_22,,standard,0_2.2,1.0,yes,959.0,4.0,True,713213.0,6.0,79.0,ball,66.0,False,1
5.0,background,19.0,False,True,True,True,True,standard_23,,standard,0_2.2,2.0,no,1452.0,4.0,True,719252.0,7.0,80.0,ball,67.0,False,1
5.0,background,19.0,True,True,True,False,True,standard_5,,standard,200_2.2,2.0,no,811.0,5.0,True,725094.0,8.0,81.0,ball,68.0,False,1
5.0,background,19.0,False,False,True,False,True,standard_8,,standard,200_2.2,1.0,yes,1058.0,5.0,True,736257.0,9.0,82.0,ball,69.0,False,1
5.0,background,19.0,True,True,True,False,True,standard_16,,standard,200_2.2,1.0,no,911.0,6.0,True,743899.0,10.0,83.0,ball,70.0,False,1
5.0,background,19.0,False,True,True,True,True,standard_11,,standard,0_2.2,2.0,no,1159.0,6.0,True,751640.0,11.0,84.0,ball,71.0,False,1
5.0,background,19.0,False,False,True,False,True,standard_20,,standard,200_2.2,1.0,yes,536.0,6.0,True,758654.0,12.0,85.0,ball,72.0,False,1
5.0,background,19.0,True,True,True,True,True,control_6,,control,control,0.0,yes,1364.0,7.0,True,763483.0,13.0,86.0,ball,73.0,False,1
6.0,background,19.0,False,True,True,False,True,standard_12,,standard,200_2.2,1.0,yes,951.0,0.0,True,771833.0,1.0,88.0,ball,74.0,False,1
6.0,background,19.0,False,True,True,False,True,standard_13,,standard,200_2.2,2.0,yes,1449.0,0.0,True,778950.0,2.0,89.0,ball,75.0,False,1
6.0,background,19.0,False,False,True,False,True,standard_4,,standard,200_2.2,1.0,yes,1697.0,0.0,True,785977.0,3.0,90.0,ball,76.0,False,1
6.0,background,19.0,True,False,True,True,True,standard_10,,standard,0_2.2,1.0,yes,820.0,1.0,True,791705.0,4.0,91.0,ball,77.0,False,1
6.0,background,19.0,False,True,True,False,True,standard_9,,standard,200_2.2,2.0,yes,2401.0,1.0,True,799009.0,5.0,92.0,ball,78.0,False,1
6.0,background,19.0,False,False,True,True,True,hard_14,,hard,0_3.2,2.0,no,1435.0,1.0,True,806032.0,6.0,93.0,ball,79.0,False,1
6.0,background,19.0,True,True,True,False,True,hard_9,,hard,100_3.2,2.0,no,704.0,2.0,True,812853.0,7.0,94.0,ball,80.0,False,1
6.0,background,19.0,True,True,True,True,True,standard_6,,standard,0_2.2,1.0,yes,556.0,3.0,True,820109.0,8.0,95.0,ball,81.0,False,1
6.0,background,19.0,True,False,True,True,True,standard_18,,standard,0_2.2,1.0,yes,787.0,4.0,True,827882.0,9.0,96.0,ball,82.0,False,1
6.0,background,19.0,True,False,True,False,True,standard_0,,standard,200_2.2,1.0,no,927.0,5.0,True,836082.0,10.0,97.0,ball,83.0,False,1
6.0,background,19.0,True,True,True,False,True,standard_17,,standard,200_2.2,2.0,no,675.0,6.0,True,845618.0,11.0,98.0,ball,84.0,False,1
6.0,background,19.0,False,True,True,True,True,hard_10,,hard,0_3.2,2.0,no,1061.0,6.0,True,852309.0,12.0,99.0,ball,85.0,False,1
6.0,background,19.0,True,True,True,False,True,control_5,,control,control,0.0,no,946.0,7.0,True,856311.0,13.0,100.0,ball,86.0,False,1
7.0,background,19.0,True,True,True,True,True,standard_3,,standard,0_2.2,2.0,yes,1210.0,1.0,True,864653.0,1.0,102.0,ball,87.0,False,1
7.0,background,19.0,True,True,True,False,True,hard_12,,hard,100_3.2,2.0,no,676.0,2.0,True,872535.0,2.0,103.0,ball,88.0,False,1
7.0,background,19.0,False,True,True,True,True,standard_7,,standard,0_2.2,2.0,no,1414.0,2.0,True,881136.0,3.0,104.0,ball,89.0,False,1
7.0,background,19.0,True,True,True,True,True,standard_19,,standard,0_2.2,2.0,yes,729.0,3.0,True,887853.0,4.0,105.0,ball,90.0,False,1
7.0,background,19.0,True,False,True,False,True,standard_21,,standard,200_2.2,2.0,no,904.0,4.0,True,893128.0,5.0,106.0,ball,91.0,False,1
7.0,background,19.0,True,False,True,False,True,hard_4,,hard,100_3.2,2.0,no,632.0,5.0,True,900260.0,6.0,107.0,ball,92.0,False,1
7.0,background,19.0,False,True,True,True,True,hard_2,,hard,0_3.2,2.0,no,762.0,5.0,True,906853.0,7.0,108.0,ball,93.0,False,1
7.0,background,19.0,True,False,True,True,True,standard_14,,standard,0_2.2,1.0,yes,1005.0,6.0,True,912860.0,8.0,109.0,ball,94.0,False,1
7.0,background,19.0,True,False,True,True,True,hard_11,,hard,0_3.2,2.0,yes,904.0,7.0,True,919704.0,9.0,110.0,ball,95.0,False,1
7.0,background,19.0,True,True,True,False,True,hard_8,,hard,100_3.2,2.0,no,1505.0,8.0,True,927073.0,10.0,111.0,ball,96.0,False,1
7.0,background,19.0,True,True,True,True,True,control_4,,control,control,0.0,yes,786.0,9.0,True,931343.0,11.0,112.0,ball,97.0,False,1
7.0,background,19.0,True,False,True,True,True,standard_15,,standard,0_2.2,2.0,yes,686.0,10.0,True,936846.0,12.0,113.0,ball,98.0,False,1
7.0,background,19.0,True,False,True,False,True,hard_1,,hard,100_3.2,2.0,no,743.0,11.0,True,943223.0,13.0,114.0,ball,99.0,False,1
8.0,background,19.0,True,False,True,False,True,standard_5,,standard,200_2.2,2.0,no,541.0,1.0,True,950707.0,1.0,116.0,ball,100.0,False,1
8.0,background,19.0,False,True,True,True,True,hard_6,,hard,0_3.2,2.0,no,845.0,1.0,True,957219.0,2.0,117.0,ball,101.0,False,1
8.0,background,19.0,True,False,True,True,True,standard_11,,standard,0_2.2,2.0,yes,799.0,2.0,True,962554.0,3.0,118.0,ball,102.0,False,1
8.0,background,19.0,False,True,True,False,True,standard_20,,standard,200_2.2,1.0,yes,456.0,2.0,True,967956.0,4.0,119.0,ball,103.0,False,1
8.0,background,19.0,True,False,True,False,True,hard_9,,hard,100_3.2,2.0,no,601.0,3.0,True,974429.0,5.0,120.0,ball,104.0,False,1
8.0,background,19.0,False,False,True,False,True,hard_0,,hard,100_3.2,2.0,yes,1151.0,3.0,True,981775.0,6.0,121.0,ball,105.0,False,1
8.0,background,19.0,False,False,True,True,True,hard_10,,hard,0_3.2,2.0,no,862.0,3.0,True,988450.0,7.0,122.0,ball,106.0,False,1
8.0,background,19.0,False,True,True,True,True,hard_7,,hard,0_3.2,2.0,no,1035.0,3.0,True,1001030.0,8.0,123.0,ball,107.0,False,1
8.0,background,19.0,True,True,True,False,True,control_7,,control,control,0.0,no,858.0,4.0,True,1006786.0,9.0,124.0,ball,108.0,False,1
8.0,background,19.0,True,True,True,False,True,hard_13,,hard,100_3.2,2.0,no,616.0,5.0,True,1015720.0,10.0,125.0,ball,109.0,False,1
8.0,background,19.0,True,False,True,True,True,hard_3,,hard,0_3.2,2.0,yes,800.0,6.0,True,1024040.0,11.0,126.0,ball,110.0,False,1
8.0,background,19.0,False,True,True,True,True,hard_14,,hard,0_3.2,2.0,no,1025.0,6.0,True,1036616.0,12.0,127.0,ball,111.0,False,1
8.0,background,19.0,True,False,True,False,True,hard_5,,hard,100_3.2,2.0,no,443.0,7.0,True,1044659.0,13.0,128.0,ball,112.0,False,1
9.0,background,19.0,False,False,True,False,True,hard_13,,hard,100_3.2,2.0,yes,936.0,0.0,True,1054188.0,1.0,130.0,ball,113.0,False,1
9.0,background,19.0,True,True,True,False,True,hard_1,,hard,100_3.2,2.0,no,1323.0,1.0,True,1065502.0,2.0,131.0,ball,114.0,False,1
9.0,background,19.0,False,False,True,True,True,hard_6,,hard,0_3.2,2.0,no,892.0,1.0,True,1072391.0,3.0,132.0,ball,115.0,False,1
9.0,background,19.0,False,True,True,False,True,hard_0,,hard,100_3.2,2.0,yes,781.0,1.0,True,1078923.0,4.0,133.0,ball,116.0,False,1
9.0,background,19.0,True,False,True,False,True,hard_12,,hard,100_3.2,2.0,no,632.0,2.0,True,1085596.0,5.0,134.0,ball,117.0,False,1
9.0,background,19.0,True,True,True,False,True,hard_4,,hard,100_3.2,2.0,no,995.0,3.0,True,1092140.0,6.0,135.0,ball,118.0,False,1
9.0,background,19.0,True,True,True,False,True,hard_5,,hard,100_3.2,2.0,no,548.0,4.0,True,1098433.0,7.0,136.0,ball,119.0,False,1
9.0,background,19.0,True,True,True,True,True,hard_11,,hard,0_3.2,2.0,yes,783.0,5.0,True,1104804.0,8.0,137.0,ball,120.0,False,1
9.0,background,19.0,False,False,True,True,True,hard_2,,hard,0_3.2,2.0,no,687.0,5.0,True,1111089.0,9.0,138.0,ball,121.0,False,1
9.0,background,19.0,True,True,True,True,True,hard_3,,hard,0_3.2,2.0,yes,1017.0,6.0,True,1117747.0,10.0,139.0,ball,122.0,False,1
9.0,background,19.0,False,False,True,True,True,hard_7,,hard,0_3.2,2.0,no,1027.0,6.0,True,1124930.0,11.0,140.0,ball,123.0,False,1
9.0,background,19.0,True,False,True,False,True,hard_8,,hard,100_3.2,2.0,no,756.0,7.0,True,1131362.0,12.0,141.0,ball,124.0,False,1
10.0,background,19.0,True,True,True,False,True,critical_6,,critical,100_3.2,2.0,no,5432.0,1.0,False,1145138.0,1.0,143.0,ball,125.0,False,1
10.0,background,19.0,False,True,True,True,True,critical_7,,critical,0_3.2,2.0,no,2489.0,1.0,False,1149841.0,2.0,144.0,ball,126.0,False,1
10.0,background,19.0,False,True,True,False,True,critical_0,,critical,100_3.2,2.0,yes,1463.0,1.0,False,1154852.0,3.0,145.0,ball,127.0,False,1
10.0,background,19.0,True,True,True,True,True,critical_1,,critical,0_3.2,2.0,yes,3097.0,2.0,False,1160077.0,4.0,146.0,ball,128.0,False,1
10.0,background,19.0,True,True,True,False,False,critical_2,,critical,100_3.2,2.0,no,722.0,3.0,False,1162660.0,5.0,147.0,ball,129.0,False,1
10.0,background,19.0,True,True,True,True,True,filler_2,,filler,0_2.2,1.0,yes,683.0,4.0,False,1165347.0,6.0,148.0,ball,130.0,False,1
10.0,background,19.0,True,True,True,False,True,filler_4,,filler,200_2.2,1.0,no,728.0,5.0,False,1168045.0,7.0,149.0,ball,131.0,False,1
10.0,background,19.0,False,True,True,True,False,critical_3,,critical,0_3.2,2.0,no,765.0,5.0,False,1170735.0,8.0,150.0,ball,132.0,False,1
10.0,background,19.0,True,True,True,False,True,filler_5,,filler,200_2.2,2.0,no,754.0,6.0,False,1173568.0,9.0,151.0,ball,133.0,False,1
10.0,background,19.0,False,True,True,False,True,filler_1,,filler,200_2.2,2.0,yes,4754.0,6.0,False,1180092.0,10.0,152.0,ball,134.0,False,1
10.0,background,19.0,False,True,True,False,False,critical_4,,critical,100_3.2,2.0,yes,3643.0,6.0,False,1185660.0,11.0,153.0,ball,135.0,False,1
10.0,background,19.0,True,True,True,True,True,filler_3,,filler,0_2.2,2.0,yes,1422.0,7.0,False,1189025.0,12.0,154.0,ball,136.0,False,1
10.0,background,19.0,True,True,True,False,True,filler_0,,filler,200_2.2,1.0,no,1202.0,8.0,False,1192195.0,13.0,155.0,ball,137.0,False,1
10.0,background,19.0,False,True,True,True,False,critical_5,,critical,0_3.2,2.0,no,2407.0,8.0,False,1196881.0,14.0,156.0,ball,138.0,False,1
0.0,False,23.0,False,True,True,True,True,instruct_3,,instruct,0_1.6,2.0,no,5140.0,0.0,True,328003.0,1.0,7.0,ball,1.0,False,2
0.0,False,23.0,True,True,True,False,True,instruct_4,,instruct,300_1.6,1.0,no,2453.0,1.0,True,335833.0,2.0,8.0,ball,2.0,False,2
0.0,False,23.0,True,True,True,True,True,instruct_6,,instruct,0_1.6,1.0,yes,2622.0,2.0,True,343665.0,3.0,9.0,ball,3.0,False,2
0.0,False,23.0,False,True,True,False,True,instruct_0,,instruct,300_1.6,1.0,yes,1910.0,2.0,True,350208.0,4.0,10.0,ball,4.0,False,2
0.0,False,23.0,True,True,True,True,True,instruct_7,,instruct,0_1.6,2.0,yes,1615.0,3.0,True,357873.0,5.0,11.0,ball,5.0,False,2
0.0,False,23.0,True,True,True,True,True,instruct_2,,instruct,0_1.6,1.0,yes,2046.0,4.0,True,365024.0,6.0,12.0,ball,6.0,False,2
0.0,False,23.0,True,True,True,False,True,instruct_5,,instruct,300_1.6,2.0,no,1469.0,5.0,True,371960.0,7.0,13.0,ball,7.0,False,2
0.0,False,23.0,False,True,True,False,True,instruct_1,,instruct,300_1.6,2.0,yes,2526.0,5.0,True,381921.0,8.0,14.0,ball,8.0,False,2
1.0,background,23.0,True,False,True,True,True,easy_2,,easy,0_1.4,1.0,yes,1893.0,1.0,True,399265.0,1.0,18.0,ball,9.0,False,2
1.0,background,23.0,True,True,True,True,True,control_0,,control,control,0.0,yes,1685.0,2.0,True,404652.0,2.0,19.0,ball,10.0,False,2
1.0,background,23.0,False,True,True,True,True,easy_10,,easy,0_1.4,1.0,no,3631.0,2.0,True,412217.0,3.0,20.0,ball,11.0,False,2
1.0,background,23.0,True,True,True,False,True,easy_4,,easy,300_1.4,1.0,no,2118.0,3.0,True,419200.0,4.0,21.0,ball,12.0,False,2
1.0,background,23.0,True,True,True,True,True,easy_14,,easy,0_1.4,1.0,yes,1630.0,4.0,True,425233.0,5.0,22.0,ball,13.0,False,2
1.0,background,23.0,True,False,True,False,True,easy_13,,easy,300_1.4,1.0,no,2661.0,5.0,True,431928.0,6.0,23.0,ball,14.0,False,2
1.0,background,23.0,True,False,True,True,True,easy_11,,easy,0_1.4,1.0,yes,886.0,6.0,True,436816.0,7.0,24.0,ball,15.0,False,2
1.0,background,23.0,True,True,True,True,True,easy_3,,easy,0_1.4,1.0,yes,2494.0,7.0,True,443449.0,8.0,25.0,ball,16.0,False,2
1.0,background,23.0,True,False,True,False,True,easy_9,,easy,300_1.4,1.0,no,1437.0,8.0,True,449009.0,9.0,26.0,ball,17.0,False,2
1.0,background,23.0,False,True,True,True,True,easy_6,,easy,0_1.4,1.0,no,2734.0,8.0,True,455576.0,10.0,27.0,ball,18.0,False,2
1.0,background,23.0,True,False,True,False,True,easy_8,,easy,300_1.4,1.0,no,2455.0,9.0,True,461873.0,11.0,28.0,ball,19.0,False,2
1.0,background,23.0,True,True,True,False,True,easy_1,,easy,300_1.4,1.0,no,1947.0,10.0,True,467758.0,12.0,29.0,ball,20.0,False,2
1.0,background,23.0,True,False,True,False,True,easy_5,,easy,300_1.4,1.0,no,2462.0,11.0,True,474611.0,13.0,30.0,ball,21.0,False,2
2.0,background,23.0,True,True,True,False,True,easy_5,,easy,300_1.4,1.0,no,1869.0,1.0,True,483866.0,1.0,32.0,ball,22.0,False,2
2.0,background,23.0,True,True,True,False,True,standard_9,,standard,200_2.2,2.0,no,838.0,2.0,True,489601.0,2.0,33.0,ball,23.0,False,2
2.0,background,23.0,True,True,True,True,True,standard_15,,standard,0_2.2,2.0,yes,1206.0,3.0,True,495385.0,3.0,34.0,ball,24.0,False,2
2.0,background,23.0,True,True,True,False,True,easy_13,,easy,300_1.4,1.0,no,757.0,4.0,True,500018.0,4.0,35.0,ball,25.0,False,2
2.0,background,23.0,False,True,True,True,True,easy_7,,easy,0_1.4,1.0,no,2773.0,4.0,True,506688.0,5.0,36.0,ball,26.0,False,2
2.0,background,23.0,False,False,True,True,True,easy_14,,easy,0_1.4,1.0,no,1662.0,4.0,True,512193.0,6.0,37.0,ball,27.0,False,2
2.0,background,23.0,True,False,True,False,True,easy_1,,easy,300_1.4,1.0,no,902.0,5.0,True,516793.0,7.0,38.0,ball,28.0,False,2
2.0,background,23.0,True,False,True,True,True,easy_3,,easy,0_1.4,1.0,yes,1430.0,6.0,True,521928.0,8.0,39.0,ball,29.0,False,2
2.0,background,23.0,False,True,True,False,True,easy_0,,easy,300_1.4,1.0,yes,1791.0,6.0,True,527393.0,9.0,40.0,ball,30.0,False,2
2.0,background,23.0,True,True,True,False,True,easy_9,,easy,300_1.4,1.0,no,1399.0,7.0,True,532289.0,10.0,41.0,ball,31.0,False,2
2.0,background,23.0,True,True,True,True,True,control_6,,control,control,0.0,yes,893.0,8.0,True,536045.0,11.0,42.0,ball,32.0,False,2
2.0,background,23.0,True,False,True,False,True,easy_12,,easy,300_1.4,1.0,no,781.0,9.0,True,540592.0,12.0,43.0,ball,33.0,False,2
2.0,background,23.0,True,False,True,True,True,standard_11,,standard,0_2.2,2.0,yes,1358.0,10.0,True,546529.0,13.0,44.0,ball,34.0,False,2
3.0,background,23.0,True,True,True,True,True,control_4,,control,control,0.0,yes,1429.0,1.0,True,552972.0,1.0,46.0,ball,35.0,False,2
3.0,background,23.0,False,True,True,True,True,standard_18,,standard,0_2.2,1.0,no,910.0,1.0,True,559601.0,2.0,47.0,ball,36.0,False,2
3.0,background,23.0,False,False,True,True,True,easy_6,,easy,0_1.4,1.0,no,821.0,1.0,True,564112.0,3.0,48.0,ball,37.0,False,2
3.0,background,23.0,True,False,True,False,True,easy_4,,easy,300_1.4,1.0,no,654.0,2.0,True,568507.0,4.0,49.0,ball,38.0,False,2
3.0,background,23.0,True,True,True,True,True,easy_2,,easy,0_1.4,1.0,yes,820.0,3.0,True,573201.0,5.0,50.0,ball,39.0,False,2
3.0,background,23.0,True,True,True,True,True,easy_11,,easy,0_1.4,1.0,yes,798.0,4.0,True,578368.0,6.0,51.0,ball,40.0,False,2
3.0,background,23.0,False,True,True,True,True,standard_7,,standard,0_2.2,2.0,no,750.0,4.0,True,584433.0,7.0,52.0,ball,41.0,False,2
3.0,background,23.0,True,True,True,False,True,easy_8,,easy,300_1.4,1.0,no,804.0,5.0,True,589232.0,8.0,53.0,ball,42.0,False,2
3.0,background,23.0,True,False,True,True,True,standard_23,,standard,0_2.2,2.0,yes,1192.0,6.0,True,594970.0,9.0,54.0,ball,43.0,False,2
3.0,background,23.0,True,False,True,False,True,standard_13,,standard,200_2.2,2.0,no,726.0,7.0,True,600193.0,10.0,55.0,ball,44.0,False,2
3.0,background,23.0,True,True,True,True,True,standard_2,,standard,0_2.2,1.0,yes,1038.0,8.0,True,606034.0,11.0,56.0,ball,45.0,False,2
3.0,background,23.0,False,False,True,False,True,standard_21,,standard,200_2.2,2.0,yes,878.0,8.0,True,611441.0,12.0,57.0,ball,46.0,False,2
3.0,background,23.0,True,False,True,True,True,easy_10,,easy,0_1.4,1.0,yes,1327.0,9.0,True,616481.0,13.0,58.0,ball,47.0,False,2
4.0,background,23.0,False,False,True,False,True,standard_12,,standard,200_2.2,1.0,yes,925.0,0.0,True,624273.0,1.0,60.0,ball,48.0,False,2
4.0,background,23.0,True,False,True,False,True,standard_16,,standard,200_2.2,1.0,no,1133.0,1.0,True,630010.0,2.0,61.0,ball,49.0,False,2
4.0,background,23.0,False,True,True,False,True,standard_0,,standard,200_2.2,1.0,yes,678.0,1.0,True,635240.0,3.0,62.0,ball,50.0,False,2
4.0,background,23.0,True,False,True,True,True,standard_6,,standard,0_2.2,1.0,yes,1005.0,2.0,True,640755.0,4.0,63.0,ball,51.0,False,2
4.0,background,23.0,False,False,True,True,True,easy_7,,easy,0_1.4,1.0,no,998.0,2.0,True,645664.0,5.0,64.0,ball,52.0,False,2
4.0,background,23.0,False,True,True,False,True,standard_8,,standard,200_2.2,1.0,yes,1486.0,2.0,True,651856.0,6.0,65.0,ball,53.0,False,2
4.0,background,23.0,True,True,True,False,True,control_7,,control,control,0.0,no,678.0,3.0,True,655333.0,7.0,66.0,ball,54.0,False,2
4.0,background,23.0,False,True,True,False,True,easy_12,,easy,300_1.4,1.0,yes,1549.0,3.0,True,661224.0,8.0,67.0,ball,55.0,False,2
4.0,background,23.0,True,False,True,False,True,standard_5,,standard,200_2.2,2.0,no,1165.0,4.0,True,667017.0,9.0,68.0,ball,56.0,False,2
4.0,background,23.0,True,False,True,False,True,standard_4,,standard,200_2.2,1.0,no,991.0,5.0,True,672443.0,10.0,69.0,ball,57.0,False,2
4.0,background,23.0,True,True,True,True,True,standard_10,,standard,0_2.2,1.0,yes,1533.0,6.0,True,678473.0,11.0,70.0,ball,58.0,False,2
4.0,background,23.0,False,False,True,False,True,easy_0,,easy,300_1.4,1.0,yes,1125.0,6.0,True,683280.0,12.0,71.0,ball,59.0,False,2
4.0,background,23.0,True,True,True,True,True,standard_14,,standard,0_2.2,1.0,yes,1134.0,7.0,True,688929.0,13.0,72.0,ball,60.0,False,2
5.0,background,23.0,False,True,True,False,True,standard_21,,standard,200_2.2,2.0,yes,2038.0,0.0,True,699498.0,1.0,74.0,ball,61.0,False,2
5.0,background,23.0,True,True,True,False,True,standard_13,,standard,200_2.2,2.0,no,1278.0,1.0,True,705282.0,2.0,75.0,ball,62.0,False,2
5.0,background,23.0,True,False,True,True,True,standard_22,,standard,0_2.2,1.0,yes,693.0,2.0,True,710570.0,3.0,76.0,ball,63.0,False,2
5.0,background,23.0,True,True,True,False,True,control_1,,control,control,0.0,no,655.0,3.0,True,714021.0,4.0,77.0,ball,64.0,False,2
5.0,background,23.0,True,True,True,False,True,standard_17,,standard,200_2.2,2.0,no,726.0,4.0,True,719377.0,5.0,78.0,ball,65.0,False,2
5.0,background,23.0,True,False,True,True,True,standard_15,,standard,0_2.2,2.0,yes,710.0,5.0,True,724691.0,6.0,79.0,ball,66.0,False,2
5.0,background,23.0,True,False,True,False,True,standard_9,,standard,200_2.2,2.0,no,493.0,6.0,True,729666.0,7.0,80.0,ball,67.0,False,2
5.0,background,23.0,False,False,True,True,True,standard_19,,standard,0_2.2,2.0,no,1069.0,6.0,True,735793.0,8.0,81.0,ball,68.0,False,2
5.0,background,23.0,True,False,True,True,True,standard_3,,standard,0_2.2,2.0,yes,2239.0,7.0,True,742626.0,9.0,82.0,ball,69.0,False,2
5.0,background,23.0,True,False,True,True,True,standard_2,,standard,0_2.2,1.0,yes,1061.0,8.0,True,748258.0,10.0,83.0,ball,70.0,False,2
5.0,background,23.0,True,True,True,False,True,standard_20,,standard,200_2.2,1.0,no,485.0,9.0,True,753209.0,11.0,84.0,ball,71.0,False,2
5.0,background,23.0,False,True,True,True,True,standard_11,,standard,0_2.2,2.0,no,1022.0,9.0,True,758657.0,12.0,85.0,ball,72.0,False,2
5.0,background,23.0,True,True,True,False,True,standard_1,,standard,200_2.2,2.0,no,614.0,10.0,True,764426.0,13.0,86.0,ball,73.0,False,2
6.0,background,23.0,True,True,True,False,True,standard_5,,standard,200_2.2,2.0,no,486.0,1.0,True,772385.0,1.0,88.0,ball,74.0,False,2
6.0,background,23.0,True,True,True,False,True,control_3,,control,control,0.0,no,958.0,2.0,True,776213.0,2.0,89.0,ball,75.0,False,2
6.0,background,23.0,False,False,True,True,True,standard_7,,standard,0_2.2,2.0,no,909.0,2.0,True,781713.0,3.0,90.0,ball,76.0,False,2
6.0,background,23.0,True,True,True,False,True,standard_4,,standard,200_2.2,1.0,no,759.0,3.0,True,787018.0,4.0,91.0,ball,77.0,False,2
6.0,background,23.0,True,False,True,True,True,standard_10,,standard,0_2.2,1.0,yes,750.0,4.0,True,792409.0,5.0,92.0,ball,78.0,False,2
6.0,background,23.0,True,False,True,False,True,standard_8,,standard,200_2.2,1.0,no,974.0,5.0,True,798186.0,6.0,93.0,ball,79.0,False,2
6.0,background,23.0,True,True,True,False,True,standard_16,,standard,200_2.2,1.0,no,1702.0,6.0,True,804545.0,7.0,94.0,ball,80.0,False,2
6.0,background,23.0,False,True,True,False,True,hard_0,,hard,100_3.2,2.0,yes,822.0,6.0,True,810849.0,8.0,95.0,ball,81.0,False,2
6.0,background,23.0,True,True,True,False,True,hard_9,,hard,100_3.2,2.0,no,941.0,7.0,True,817306.0,9.0,96.0,ball,82.0,False,2
6.0,background,23.0,False,True,True,True,True,standard_23,,standard,0_2.2,2.0,no,1693.0,7.0,True,823537.0,10.0,97.0,ball,83.0,False,2
6.0,background,23.0,True,False,True,False,True,hard_13,,hard,100_3.2,2.0,no,918.0,8.0,True,829937.0,11.0,98.0,ball,84.0,False,2
6.0,background,23.0,False,True,True,True,True,standard_6,,standard,0_2.2,1.0,no,877.0,8.0,True,835321.0,12.0,99.0,ball,85.0,False,2
6.0,background,23.0,False,False,True,True,True,standard_18,,standard,0_2.2,1.0,no,518.0,8.0,True,840408.0,13.0,100.0,ball,86.0,False,2
7.0,background,23.0,True,True,True,False,True,control_5,,control,control,0.0,no,742.0,1.0,True,846957.0,1.0,102.0,ball,87.0,False,2
7.0,background,23.0,True,False,True,False,True,standard_17,,standard,200_2.2,2.0,no,662.0,2.0,True,852265.0,2.0,103.0,ball,88.0,False,2
7.0,background,23.0,False,True,True,True,True,hard_7,,hard,0_3.2,2.0,no,517.0,2.0,True,858283.0,3.0,104.0,ball,89.0,False,2
7.0,background,23.0,False,True,True,True,True,standard_3,,standard,0_2.2,2.0,no,910.0,2.0,True,863729.0,4.0,105.0,ball,90.0,False,2
7.0,background,23.0,False,False,True,True,True,hard_11,,hard,0_3.2,2.0,no,709.0,2.0,True,870073.0,5.0,106.0,ball,91.0,False,2
7.0,background,23.0,True,False,True,True,True,standard_14,,standard,0_2.2,1.0,yes,1102.0,3.0,True,875632.0,6.0,107.0,ball,92.0,False,2
7.0,background,23.0,False,True,True,False,True,hard_1,,hard,100_3.2,2.0,yes,3975.0,3.0,True,885225.0,7.0,108.0,ball,93.0,False,2
7.0,background,23.0,True,False,True,True,True,hard_14,,hard,0_3.2,2.0,yes,1303.0,4.0,True,892033.0,8.0,109.0,ball,94.0,False,2
7.0,background,23.0,True,False,True,False,True,hard_4,,hard,100_3.2,2.0,no,638.0,5.0,True,898203.0,9.0,110.0,ball,95.0,False,2
7.0,background,23.0,True,True,True,True,True,standard_22,,standard,0_2.2,1.0,yes,1005.0,6.0,True,903785.0,10.0,111.0,ball,96.0,False,2
7.0,background,23.0,True,True,True,False,True,standard_12,,standard,200_2.2,1.0,no,2910.0,7.0,True,911457.0,11.0,112.0,ball,97.0,False,2
7.0,background,23.0,True,True,True,False,True,hard_5,,hard,100_3.2,2.0,no,622.0,8.0,True,917585.0,12.0,113.0,ball,98.0,False,2
7.0,background,23.0,True,False,True,False,True,standard_0,,standard,200_2.2,1.0,no,1939.0,9.0,True,924055.0,13.0,114.0,ball,99.0,False,2
8.0,background,23.0,True,False,True,False,True,hard_9,,hard,100_3.2,2.0,no,1445.0,1.0,True,933594.0,1.0,116.0,ball,100.0,False,2
8.0,background,23.0,True,True,True,True,True,control_2,,control,control,0.0,yes,1430.0,2.0,True,938013.0,2.0,117.0,ball,101.0,False,2
8.0,background,23.0,False,True,True,True,True,hard_10,,hard,0_3.2,2.0,no,1060.0,2.0,True,944617.0,3.0,118.0,ball,102.0,False,2
8.0,background,23.0,True,True,True,False,True,hard_13,,hard,100_3.2,2.0,no,943.0,3.0,True,951379.0,4.0,119.0,ball,103.0,False,2
8.0,background,23.0,False,False,True,False,True,hard_0,,hard,100_3.2,2.0,yes,957.0,3.0,True,957866.0,5.0,120.0,ball,104.0,False,2
8.0,background,23.0,False,False,True,True,True,hard_3,,hard,0_3.2,2.0,no,1517.0,3.0,True,964650.0,6.0,121.0,ball,105.0,False,2
8.0,background,23.0,True,True,True,False,True,hard_12,,hard,100_3.2,2.0,no,799.0,4.0,True,971146.0,7.0,122.0,ball,106.0,False,2
8.0,background,23.0,False,True,True,True,True,standard_19,,standard,0_2.2,2.0,no,869.0,4.0,True,976632.0,8.0,123.0,ball,107.0,False,2
8.0,background,23.0,False,False,True,False,True,standard_20,,standard,200_2.2,1.0,yes,926.0,4.0,True,982041.0,9.0,124.0,ball,108.0,False,2
8.0,background,23.0,True,False,True,False,True,standard_1,,standard,200_2.2,2.0,no,847.0,5.0,True,987554.0,10.0,125.0,ball,109.0,False,2
8.0,background,23.0,True,True,True,False,True,hard_8,,hard,100_3.2,2.0,no,837.0,6.0,True,993905.0,11.0,126.0,ball,110.0,False,2
8.0,background,23.0,False,False,True,True,True,hard_2,,hard,0_3.2,2.0,no,453.0,6.0,True,999929.0,12.0,127.0,ball,111.0,False,2
8.0,background,23.0,False,False,True,True,True,hard_6,,hard,0_3.2,2.0,no,807.0,6.0,True,1006329.0,13.0,128.0,ball,112.0,False,2
9.0,background,23.0,True,False,True,False,True,hard_5,,hard,100_3.2,2.0,no,494.0,1.0,True,1015236.0,1.0,130.0,ball,113.0,False,2
9.0,background,23.0,False,True,True,True,True,hard_2,,hard,0_3.2,2.0,no,486.0,1.0,True,1021290.0,2.0,131.0,ball,114.0,False,2
9.0,background,23.0,False,True,True,True,True,hard_6,,hard,0_3.2,2.0,no,1397.0,1.0,True,1028441.0,3.0,132.0,ball,115.0,False,2
9.0,background,23.0,True,True,True,True,True,hard_14,,hard,0_3.2,2.0,yes,766.0,2.0,True,1034737.0,4.0,133.0,ball,116.0,False,2
9.0,background,23.0,False,False,True,True,True,hard_7,,hard,0_3.2,2.0,no,670.0,2.0,True,1041260.0,5.0,134.0,ball,117.0,False,2
9.0,background,23.0,True,False,True,False,True,hard_8,,hard,100_3.2,2.0,no,875.0,3.0,True,1047617.0,6.0,135.0,ball,118.0,False,2
9.0,background,23.0,True,True,True,True,True,hard_11,,hard,0_3.2,2.0,yes,662.0,4.0,True,1053675.0,7.0,136.0,ball,119.0,False,2
9.0,background,23.0,True,False,True,False,True,hard_12,,hard,100_3.2,2.0,no,414.0,5.0,True,1059587.0,8.0,137.0,ball,120.0,False,2
9.0,background,23.0,True,False,True,True,True,hard_10,,hard,0_3.2,2.0,yes,629.0,6.0,True,1065682.0,9.0,138.0,ball,121.0,False,2
9.0,background,23.0,True,True,True,False,True,hard_4,,hard,100_3.2,2.0,no,846.0,7.0,True,1071929.0,10.0,139.0,ball,122.0,False,2
9.0,background,23.0,False,True,True,True,True,hard_3,,hard,0_3.2,2.0,no,1085.0,7.0,True,1078498.0,11.0,140.0,ball,123.0,False,2
9.0,background,23.0,True,False,True,False,True,hard_1,,hard,100_3.2,2.0,no,454.0,8.0,True,1084436.0,12.0,141.0,ball,124.0,False,2
10.0,background,23.0,True,True,True,False,True,critical_6,,critical,100_3.2,2.0,no,1252.0,1.0,False,1094108.0,1.0,143.0,ball,125.0,False,2
10.0,background,23.0,True,True,True,True,True,critical_7,,critical,0_3.2,2.0,yes,1566.0,2.0,False,1100956.0,2.0,144.0,ball,126.0,False,2
10.0,background,23.0,True,True,True,False,True,critical_0,,critical,100_3.2,2.0,no,806.0,3.0,False,1103788.0,3.0,145.0,ball,127.0,False,2
10.0,background,23.0,False,True,True,True,True,critical_1,,critical,0_3.2,2.0,no,598.0,3.0,False,1106379.0,4.0,146.0,ball,128.0,False,2
10.0,background,23.0,True,True,True,False,False,critical_2,,critical,100_3.2,2.0,no,3701.0,4.0,False,1112140.0,5.0,147.0,ball,129.0,False,2
10.0,background,23.0,False,True,True,False,True,filler_0,,filler,200_2.2,1.0,yes,1150.0,4.0,False,1115332.0,6.0,148.0,ball,130.0,False,2
10.0,background,23.0,True,True,True,True,True,filler_2,,filler,0_2.2,1.0,yes,1375.0,5.0,False,1118685.0,7.0,149.0,ball,131.0,False,2
10.0,background,23.0,False,True,True,True,False,critical_3,,critical,0_3.2,2.0,no,1229.0,5.0,False,1121829.0,8.0,150.0,ball,132.0,False,2
10.0,background,23.0,True,True,True,True,True,filler_3,,filler,0_2.2,2.0,yes,799.0,6.0,False,1124821.0,9.0,151.0,ball,133.0,False,2
10.0,background,23.0,False,True,True,False,True,filler_4,,filler,200_2.2,1.0,yes,2479.0,6.0,False,1129389.0,10.0,152.0,ball,134.0,False,2
10.0,background,23.0,True,True,True,False,False,critical_4,,critical,100_3.2,2.0,no,3467.0,7.0,False,1134876.0,11.0,153.0,ball,135.0,False,2
10.0,background,23.0,True,True,True,False,True,filler_5,,filler,200_2.2,2.0,no,1422.0,8.0,False,1138380.0,12.0,154.0,ball,136.0,False,2
10.0,background,23.0,True,True,True,False,True,filler_1,,filler,200_2.2,2.0,no,2127.0,9.0,False,1142661.0,13.0,155.0,ball,137.0,False,2
10.0,background,23.0,True,True,True,True,False,critical_5,,critical,0_3.2,2.0,yes,2773.0,10.0,False,1147476.0,14.0,156.0,ball,138.0,False,2
0.0,False,21.0,False,True,True,False,True,instruct_1,,instruct,300_1.6,2.0,yes,5298.0,0.0,True,147163.0,1.0,7.0,ball,1.0,False,3
0.0,False,21.0,True,True,True,False,True,instruct_0,,instruct,300_1.6,1.0,no,3131.0,1.0,True,155534.0,2.0,8.0,ball,2.0,False,3
0.0,False,21.0,True,True,True,True,True,instruct_2,,instruct,0_1.6,1.0,yes,2551.0,2.0,True,163220.0,3.0,9.0,ball,3.0,False,3
0.0,False,21.0,True,True,True,False,True,instruct_4,,instruct,300_1.6,1.0,no,3647.0,3.0,True,171370.0,4.0,10.0,ball,4.0,False,3
0.0,False,21.0,False,True,True,True,True,instruct_3,,instruct,0_1.6,2.0,no,4198.0,3.0,True,180529.0,5.0,11.0,ball,5.0,False,3
0.0,False,21.0,True,True,True,False,True,instruct_5,,instruct,300_1.6,2.0,no,1680.0,4.0,True,187016.0,6.0,12.0,ball,6.0,False,3
0.0,False,21.0,True,True,True,True,True,instruct_6,,instruct,0_1.6,1.0,yes,1159.0,5.0,True,192867.0,7.0,13.0,ball,7.0,False,3
0.0,False,21.0,True,True,True,True,True,instruct_7,,instruct,0_1.6,2.0,yes,2796.0,6.0,True,200050.0,8.0,14.0,ball,8.0,False,3
1.0,background,21.0,True,True,True,True,True,control_2,,control,control,0.0,yes,2290.0,1.0,True,221177.0,1.0,18.0,ball,9.0,False,3
1.0,background,21.0,True,False,True,True,True,easy_11,,easy,0_1.4,1.0,yes,988.0,2.0,True,227358.0,2.0,19.0,ball,10.0,False,3
1.0,background,21.0,True,True,True,True,True,easy_3,,easy,0_1.4,1.0,yes,3160.0,3.0,True,234803.0,3.0,20.0,ball,11.0,False,3
1.0,background,21.0,True,False,True,False,True,easy_4,,easy,300_1.4,1.0,no,1576.0,4.0,True,240724.0,4.0,21.0,ball,12.0,False,3
1.0,background,21.0,True,True,True,True,True,easy_7,,easy,0_1.4,1.0,yes,2029.0,5.0,True,247023.0,5.0,22.0,ball,13.0,False,3
1.0,background,21.0,True,False,True,True,True,easy_2,,easy,0_1.4,1.0,yes,1680.0,6.0,True,252661.0,6.0,23.0,ball,14.0,False,3
1.0,background,21.0,True,True,True,False,True,easy_0,,easy,300_1.4,1.0,no,1161.0,7.0,True,257867.0,7.0,24.0,ball,15.0,False,3
1.0,background,21.0,True,True,True,False,True,easy_5,,easy,300_1.4,1.0,no,4414.0,8.0,True,266553.0,8.0,25.0,ball,16.0,False,3
1.0,background,21.0,True,False,True,True,True,easy_10,,easy,0_1.4,1.0,yes,1089.0,9.0,True,271891.0,9.0,26.0,ball,17.0,False,3
1.0,background,21.0,False,False,True,True,True,easy_6,,easy,0_1.4,1.0,no,1843.0,9.0,True,277802.0,10.0,27.0,ball,18.0,False,3
1.0,background,21.0,True,True,True,True,True,easy_14,,easy,0_1.4,1.0,yes,2889.0,10.0,True,284896.0,11.0,28.0,ball,19.0,False,3
1.0,background,21.0,True,True,True,False,True,easy_8,,easy,300_1.4,1.0,no,3429.0,11.0,True,292360.0,12.0,29.0,ball,20.0,False,3
1.0,background,21.0,True,False,True,False,True,easy_1,,easy,300_1.4,1.0,no,1402.0,12.0,True,297951.0,13.0,30.0,ball,21.0,False,3
2.0,background,21.0,False,False,True,True,True,standard_19,,standard,0_2.2,2.0,no,6224.0,0.0,True,318082.0,1.0,32.0,ball,22.0,False,3
2.0,background,21.0,True,True,True,False,True,control_3,,control,control,0.0,no,2727.0,1.0,True,324175.0,2.0,33.0,ball,23.0,False,3
2.0,background,21.0,True,True,True,False,True,easy_13,,easy,300_1.4,1.0,no,1342.0,2.0,True,329549.0,3.0,34.0,ball,24.0,False,3
2.0,background,21.0,True,False,True,False,True,easy_12,,easy,300_1.4,1.0,no,1127.0,3.0,True,334665.0,4.0,35.0,ball,25.0,False,3
2.0,background,21.0,True,True,True,True,True,easy_2,,easy,0_1.4,1.0,yes,1636.0,4.0,True,339818.0,5.0,36.0,ball,26.0,False,3
2.0,background,21.0,False,True,True,True,True,easy_6,,easy,0_1.4,1.0,no,2188.0,4.0,True,346227.0,6.0,37.0,ball,27.0,False,3
2.0,background,21.0,True,False,True,True,True,easy_14,,easy,0_1.4,1.0,yes,2152.0,5.0,True,352531.0,7.0,38.0,ball,28.0,False,3
2.0,background,21.0,True,True,True,False,True,easy_1,,easy,300_1.4,1.0,no,868.0,6.0,True,357425.0,8.0,39.0,ball,29.0,False,3
2.0,background,21.0,False,True,True,False,True,standard_9,,standard,200_2.2,2.0,yes,3272.0,6.0,True,365630.0,9.0,40.0,ball,30.0,False,3
2.0,background,21.0,True,False,True,True,True,easy_7,,easy,0_1.4,1.0,yes,2870.0,7.0,True,372405.0,10.0,41.0,ball,31.0,False,3
2.0,background,21.0,True,True,True,False,True,easy_9,,easy,300_1.4,1.0,no,1220.0,8.0,True,377528.0,11.0,42.0,ball,32.0,False,3
2.0,background,21.0,True,False,True,False,True,easy_0,,easy,300_1.4,1.0,no,2405.0,9.0,True,383954.0,12.0,43.0,ball,33.0,False,3
2.0,background,21.0,True,True,True,False,True,standard_8,,standard,200_2.2,1.0,no,2111.0,10.0,True,390763.0,13.0,44.0,ball,34.0,False,3
3.0,background,21.0,True,True,True,True,True,easy_11,,easy,0_1.4,1.0,yes,989.0,1.0,True,399506.0,1.0,46.0,ball,35.0,False,3
3.0,background,21.0,True,True,True,False,True,easy_4,,easy,300_1.4,1.0,no,1132.0,2.0,True,404801.0,2.0,47.0,ball,36.0,False,3
3.0,background,21.0,True,False,True,True,True,easy_3,,easy,0_1.4,1.0,yes,3605.0,3.0,True,412591.0,3.0,48.0,ball,37.0,False,3
3.0,background,21.0,True,False,True,True,True,standard_22,,standard,0_2.2,1.0,yes,1039.0,4.0,True,418466.0,4.0,49.0,ball,38.0,False,3
3.0,background,21.0,False,True,True,True,True,standard_11,,standard,0_2.2,2.0,no,4618.0,4.0,True,427854.0,5.0,50.0,ball,39.0,False,3
3.0,background,21.0,True,True,True,False,True,standard_1,,standard,200_2.2,2.0,no,891.0,5.0,True,433513.0,6.0,51.0,ball,40.0,False,3
3.0,background,21.0,True,False,True,True,True,standard_2,,standard,0_2.2,1.0,yes,1224.0,6.0,True,439567.0,7.0,52.0,ball,41.0,False,3
3.0,background,21.0,False,True,True,True,True,control_0,,control,control,0.0,no,617.0,6.0,True,443413.0,8.0,53.0,ball,42.0,False,3
3.0,background,21.0,False,True,True,True,True,standard_15,,standard,0_2.2,2.0,no,2783.0,6.0,True,451178.0,9.0,54.0,ball,43.0,False,3
3.0,background,21.0,True,False,True,False,True,easy_8,,easy,300_1.4,1.0,no,3430.0,7.0,True,458695.0,10.0,55.0,ball,44.0,False,3
3.0,background,21.0,True,False,True,False,True,easy_5,,easy,300_1.4,1.0,no,2663.0,8.0,True,465361.0,11.0,56.0,ball,45.0,False,3
3.0,background,21.0,False,False,True,True,True,standard_7,,standard,0_2.2,2.0,no,758.0,8.0,True,471037.0,12.0,57.0,ball,46.0,False,3
3.0,background,21.0,True,True,True,True,True,easy_10,,easy,0_1.4,1.0,yes,1154.0,9.0,True,476155.0,13.0,58.0,ball,47.0,False,3
4.0,background,21.0,True,True,True,True,True,standard_10,,standard,0_2.2,1.0,yes,1160.0,1.0,True,484546.0,1.0,60.0,ball,48.0,False,3
4.0,background,21.0,False,True,True,False,True,standard_0,,standard,200_2.2,1.0,yes,3122.0,1.0,True,492590.0,2.0,61.0,ball,49.0,False,3
4.0,background,21.0,True,True,True,True,True,standard_14,,standard,0_2.2,1.0,yes,855.0,2.0,True,498273.0,3.0,62.0,ball,50.0,False,3
4.0,background,21.0,False,True,True,True,True,standard_6,,standard,0_2.2,1.0,no,1419.0,2.0,True,504474.0,4.0,63.0,ball,51.0,False,3
4.0,background,21.0,True,False,True,False,True,easy_9,,easy,300_1.4,1.0,no,1225.0,3.0,True,509665.0,5.0,64.0,ball,52.0,False,3
4.0,background,21.0,True,True,True,True,True,control_4,,control,control,0.0,yes,1250.0,4.0,True,514030.0,6.0,65.0,ball,53.0,False,3
4.0,background,21.0,True,False,True,False,True,standard_4,,standard,200_2.2,1.0,no,3239.0,5.0,True,522436.0,7.0,66.0,ball,54.0,False,3
4.0,background,21.0,True,False,True,False,True,standard_21,,standard,200_2.2,2.0,no,2366.0,6.0,True,529855.0,8.0,67.0,ball,55.0,False,3
4.0,background,21.0,False,False,True,False,True,standard_16,,standard,200_2.2,1.0,yes,2869.0,6.0,True,537593.0,9.0,68.0,ball,56.0,False,3
4.0,background,21.0,False,False,True,True,True,standard_3,,standard,0_2.2,2.0,no,2314.0,6.0,True,544646.0,10.0,69.0,ball,57.0,False,3
4.0,background,21.0,True,True,True,False,True,easy_12,,easy,300_1.4,1.0,no,3508.0,7.0,True,552100.0,11.0,70.0,ball,58.0,False,3
4.0,background,21.0,True,False,True,False,True,easy_13,,easy,300_1.4,1.0,no,862.0,8.0,True,556946.0,12.0,71.0,ball,59.0,False,3
4.0,background,21.0,True,False,True,True,True,standard_18,,standard,0_2.2,1.0,yes,2748.0,9.0,True,564349.0,13.0,72.0,ball,60.0,False,3
5.0,background,21.0,False,True,True,True,True,standard_7,,standard,0_2.2,2.0,no,1389.0,0.0,True,572580.0,1.0,74.0,ball,61.0,False,3
5.0,background,21.0,True,False,True,False,True,standard_17,,standard,200_2.2,2.0,no,2143.0,1.0,True,579751.0,2.0,75.0,ball,62.0,False,3
5.0,background,21.0,True,True,True,True,True,standard_22,,standard,0_2.2,1.0,yes,1109.0,2.0,True,585679.0,3.0,76.0,ball,63.0,False,3
5.0,background,21.0,True,True,True,False,True,standard_5,,standard,200_2.2,2.0,no,3031.0,3.0,True,593604.0,4.0,77.0,ball,64.0,False,3
5.0,background,21.0,True,False,True,False,True,standard_12,,standard,200_2.2,1.0,no,2328.0,4.0,True,600882.0,5.0,78.0,ball,65.0,False,3
5.0,background,21.0,True,True,True,False,True,standard_20,,standard,200_2.2,1.0,no,3718.0,5.0,True,609372.0,6.0,79.0,ball,66.0,False,3
5.0,background,21.0,True,False,True,False,True,standard_13,,standard,200_2.2,2.0,no,3223.0,6.0,True,617397.0,7.0,80.0,ball,67.0,False,3
5.0,background,21.0,True,True,True,False,True,control_1,,control,control,0.0,no,1315.0,7.0,True,621993.0,8.0,81.0,ball,68.0,False,3
5.0,background,21.0,False,True,True,True,True,standard_23,,standard,0_2.2,2.0,no,6139.0,7.0,True,633018.0,9.0,82.0,ball,69.0,False,3
5.0,background,21.0,True,True,True,True,True,standard_19,,standard,0_2.2,2.0,yes,4381.0,8.0,True,642195.0,10.0,83.0,ball,70.0,False,3
5.0,background,21.0,True,False,True,False,True,standard_8,,standard,200_2.2,1.0,no,1444.0,9.0,True,649140.0,11.0,84.0,ball,71.0,False,3
5.0,background,21.0,True,False,True,False,True,standard_9,,standard,200_2.2,2.0,no,2379.0,10.0,True,656243.0,12.0,85.0,ball,72.0,False,3
5.0,background,21.0,True,False,True,True,True,standard_15,,standard,0_2.2,2.0,yes,1750.0,11.0,True,662932.0,13.0,86.0,ball,73.0,False,3
6.0,background,21.0,True,False,True,False,True,hard_0,,hard,100_3.2,2.0,no,2995.0,1.0,True,674062.0,1.0,88.0,ball,74.0,False,3
6.0,background,21.0,True,False,True,True,True,standard_11,,standard,0_2.2,2.0,yes,1831.0,2.0,True,680650.0,2.0,89.0,ball,75.0,False,3
6.0,background,21.0,True,False,True,False,True,standard_1,,standard,200_2.2,2.0,no,1036.0,3.0,True,686418.0,3.0,90.0,ball,76.0,False,3
6.0,background,21.0,True,False,True,True,True,standard_6,,standard,0_2.2,1.0,yes,1068.0,4.0,True,692389.0,4.0,91.0,ball,77.0,False,3
6.0,background,21.0,True,True,True,False,True,standard_21,,standard,200_2.2,2.0,no,2590.0,5.0,True,700600.0,5.0,92.0,ball,78.0,False,3
6.0,background,21.0,True,True,True,False,True,standard_16,,standard,200_2.2,1.0,no,1786.0,6.0,True,707190.0,6.0,93.0,ball,79.0,False,3
6.0,background,21.0,False,True,True,True,True,hard_6,,hard,0_3.2,2.0,no,2217.0,6.0,True,715093.0,7.0,94.0,ball,80.0,False,3
6.0,background,21.0,False,True,True,True,True,hard_7,,hard,0_3.2,2.0,no,3331.0,6.0,True,724371.0,8.0,95.0,ball,81.0,False,3
6.0,background,21.0,True,True,True,True,True,standard_18,,standard,0_2.2,1.0,yes,1157.0,7.0,True,730216.0,9.0,96.0,ball,82.0,False,3
6.0,background,21.0,True,True,True,True,True,standard_2,,standard,0_2.2,1.0,yes,831.0,8.0,True,735879.0,10.0,97.0,ball,83.0,False,3
6.0,background,21.0,True,False,True,True,True,standard_14,,standard,0_2.2,1.0,yes,670.0,9.0,True,741317.0,11.0,98.0,ball,84.0,False,3
6.0,background,21.0,True,True,True,False,True,standard_4,,standard,200_2.2,1.0,no,2243.0,10.0,True,748303.0,12.0,99.0,ball,85.0,False,3
6.0,background,21.0,True,True,True,False,True,control_7,,control,control,0.0,no,1064.0,11.0,True,752358.0,13.0,100.0,ball,86.0,False,3
7.0,background,21.0,True,False,True,True,True,standard_10,,standard,0_2.2,1.0,yes,701.0,1.0,True,760231.0,1.0,102.0,ball,87.0,False,3
7.0,background,21.0,False,True,True,False,True,standard_12,,standard,200_2.2,1.0,yes,1557.0,1.0,True,766491.0,2.0,103.0,ball,88.0,False,3
7.0,background,21.0,True,False,True,True,True,standard_23,,standard,0_2.2,2.0,yes,1377.0,2.0,True,772665.0,3.0,104.0,ball,89.0,False,3
7.0,background,21.0,True,True,True,False,True,standard_17,,standard,200_2.2,2.0,no,2192.0,3.0,True,779722.0,4.0,105.0,ball,90.0,False,3
7.0,background,21.0,False,True,True,True,True,standard_3,,standard,0_2.2,2.0,no,1860.0,3.0,True,786302.0,5.0,106.0,ball,91.0,False,3
7.0,background,21.0,False,False,True,True,True,hard_10,,hard,0_3.2,2.0,no,2861.0,3.0,True,794872.0,6.0,107.0,ball,92.0,False,3
7.0,background,21.0,True,True,True,False,True,control_5,,control,control,0.0,no,856.0,4.0,True,798713.0,7.0,108.0,ball,93.0,False,3
7.0,background,21.0,True,True,True,False,True,hard_9,,hard,100_3.2,2.0,no,1926.0,5.0,True,806506.0,8.0,109.0,ball,94.0,False,3
7.0,background,21.0,True,True,True,False,True,hard_5,,hard,100_3.2,2.0,no,2633.0,6.0,True,814823.0,9.0,110.0,ball,95.0,False,3
7.0,background,21.0,False,False,True,False,True,standard_0,,standard,200_2.2,1.0,yes,3530.0,6.0,True,823141.0,10.0,111.0,ball,96.0,False,3
7.0,background,21.0,True,False,True,False,True,hard_8,,hard,100_3.2,2.0,no,1029.0,7.0,True,829916.0,11.0,112.0,ball,97.0,False,3
7.0,background,21.0,False,False,True,False,True,hard_13,,hard,100_3.2,2.0,yes,5605.0,7.0,True,841240.0,12.0,113.0,ball,98.0,False,3
7.0,background,21.0,True,True,True,False,True,hard_12,,hard,100_3.2,2.0,no,793.0,8.0,True,847673.0,13.0,114.0,ball,99.0,False,3
8.0,background,21.0,False,False,True,True,True,hard_6,,hard,0_3.2,2.0,no,2252.0,0.0,True,857966.0,1.0,116.0,ball,100.0,False,3
8.0,background,21.0,True,True,True,False,True,standard_13,,standard,200_2.2,2.0,no,829.0,1.0,True,863423.0,2.0,117.0,ball,101.0,False,3
8.0,background,21.0,True,False,True,False,True,standard_5,,standard,200_2.2,2.0,no,3109.0,2.0,True,871383.0,3.0,118.0,ball,102.0,False,3
8.0,background,21.0,True,False,True,False,True,hard_4,,hard,100_3.2,2.0,no,830.0,3.0,True,877912.0,4.0,119.0,ball,103.0,False,3
8.0,background,21.0,False,False,True,False,True,standard_20,,standard,200_2.2,1.0,yes,2668.0,3.0,True,885310.0,5.0,120.0,ball,104.0,False,3
8.0,background,21.0,False,False,True,True,True,hard_7,,hard,0_3.2,2.0,no,896.0,3.0,True,891867.0,6.0,121.0,ball,105.0,False,3
8.0,background,21.0,True,False,True,True,True,hard_3,,hard,0_3.2,2.0,yes,2026.0,4.0,True,909087.0,7.0,122.0,ball,106.0,False,3
8.0,background,21.0,False,True,True,True,True,hard_14,,hard,0_3.2,2.0,no,2196.0,4.0,True,916950.0,8.0,123.0,ball,107.0,False,3
8.0,background,21.0,False,True,True,False,True,hard_0,,hard,100_3.2,2.0,yes,1455.0,4.0,True,924227.0,9.0,124.0,ball,108.0,False,3
8.0,background,21.0,False,True,True,True,True,hard_11,,hard,0_3.2,2.0,no,1973.0,4.0,True,931925.0,10.0,125.0,ball,109.0,False,3
8.0,background,21.0,True,True,True,True,True,hard_2,,hard,0_3.2,2.0,yes,2105.0,5.0,True,939737.0,11.0,126.0,ball,110.0,False,3
8.0,background,21.0,True,True,True,True,True,control_6,,control,control,0.0,yes,930.0,6.0,True,943649.0,12.0,127.0,ball,111.0,False,3
8.0,background,21.0,True,False,True,False,True,hard_1,,hard,100_3.2,2.0,no,2180.0,7.0,True,951654.0,13.0,128.0,ball,112.0,False,3
9.0,background,21.0,False,False,True,True,True,hard_14,,hard,0_3.2,2.0,no,1709.0,0.0,True,961186.0,1.0,130.0,ball,113.0,False,3
9.0,background,21.0,True,True,True,False,True,hard_8,,hard,100_3.2,2.0,no,1661.0,1.0,True,972109.0,2.0,131.0,ball,114.0,False,3
9.0,background,21.0,False,False,True,True,True,hard_2,,hard,0_3.2,2.0,no,2948.0,1.0,True,980948.0,3.0,132.0,ball,115.0,False,3
9.0,background,21.0,True,True,True,True,True,hard_3,,hard,0_3.2,2.0,yes,1791.0,2.0,True,988425.0,4.0,133.0,ball,116.0,False,3
9.0,background,21.0,False,True,True,True,True,hard_10,,hard,0_3.2,2.0,no,1321.0,2.0,True,995547.0,5.0,134.0,ball,117.0,False,3
9.0,background,21.0,True,False,True,False,True,hard_5,,hard,100_3.2,2.0,no,2232.0,3.0,True,1003603.0,6.0,135.0,ball,118.0,False,3
9.0,background,21.0,True,True,True,False,True,hard_1,,hard,100_3.2,2.0,no,3239.0,4.0,True,1012741.0,7.0,136.0,ball,119.0,False,3
9.0,background,21.0,True,False,True,False,True,hard_12,,hard,100_3.2,2.0,no,1464.0,5.0,True,1019975.0,8.0,137.0,ball,120.0,False,3
9.0,background,21.0,True,True,True,False,True,hard_4,,hard,100_3.2,2.0,no,1943.0,6.0,True,1027789.0,9.0,138.0,ball,121.0,False,3
9.0,background,21.0,True,False,True,False,True,hard_9,,hard,100_3.2,2.0,no,2796.0,7.0,True,1036334.0,10.0,139.0,ball,122.0,False,3
9.0,background,21.0,False,False,True,True,True,hard_11,,hard,0_3.2,2.0,no,1762.0,7.0,True,1043950.0,11.0,140.0,ball,123.0,False,3
9.0,background,21.0,True,True,True,False,True,hard_13,,hard,100_3.2,2.0,no,1290.0,8.0,True,1052585.0,12.0,141.0,ball,124.0,False,3
10.0,background,21.0,True,True,True,False,True,critical_6,,critical,100_3.2,2.0,no,2972.0,1.0,False,1064778.0,1.0,143.0,ball,125.0,False,3
10.0,background,21.0,False,True,True,True,True,critical_7,,critical,0_3.2,2.0,no,1981.0,1.0,False,1069936.0,2.0,144.0,ball,126.0,False,3
10.0,background,21.0,True,True,True,False,True,critical_0,,critical,100_3.2,2.0,no,3487.0,2.0,False,1075718.0,3.0,145.0,ball,127.0,False,3
10.0,background,21.0,True,True,True,True,True,critical_1,,critical,0_3.2,2.0,yes,2022.0,3.0,False,1080325.0,4.0,146.0,ball,128.0,False,3
10.0,background,21.0,False,True,True,False,False,critical_2,,critical,100_3.2,2.0,yes,8825.0,3.0,False,1091269.0,5.0,147.0,ball,129.0,False,3
10.0,background,21.0,True,True,True,False,True,filler_0,,filler,200_2.2,1.0,no,5478.0,4.0,False,1098862.0,6.0,148.0,ball,130.0,False,3
10.0,background,21.0,True,True,True,False,True,filler_4,,filler,200_2.2,1.0,no,2075.0,5.0,False,1103117.0,7.0,149.0,ball,131.0,False,3
10.0,background,21.0,False,True,True,True,False,critical_3,,critical,0_3.2,2.0,no,1191.0,5.0,False,1106525.0,8.0,150.0,ball,132.0,False,3
10.0,background,21.0,False,True,True,False,True,filler_1,,filler,200_2.2,2.0,yes,4576.0,5.0,False,1113243.0,9.0,151.0,ball,133.0,False,3
10.0,background,21.0,True,True,True,True,True,filler_2,,filler,0_2.2,1.0,yes,1770.0,6.0,False,1116997.0,10.0,152.0,ball,134.0,False,3
10.0,background,21.0,True,True,True,False,False,critical_4,,critical,100_3.2,2.0,no,7919.0,7.0,False,1126993.0,11.0,153.0,ball,135.0,False,3
10.0,background,21.0,False,True,True,True,True,filler_3,,filler,0_2.2,2.0,no,2449.0,7.0,False,1131403.0,12.0,154.0,ball,136.0,False,3
10.0,background,21.0,True,True,True,False,True,filler_5,,filler,200_2.2,2.0,no,3301.0,8.0,False,1136738.0,13.0,155.0,ball,137.0,False,3
10.0,background,21.0,True,True,True,True,False,critical_5,,critical,0_3.2,2.0,yes,6470.0,9.0,False,1145384.0,14.0,156.0,ball,138.0,False,3
0.0,False,17.0,True,True,True,False,True,instruct_4,,instruct,300_1.6,1.0,no,4242.0,1.0,True,89648.0,1.0,5.0,ball,1.0,False,4
0.0,False,17.0,True,True,True,True,True,instruct_7,,instruct,0_1.6,2.0,yes,2195.0,2.0,True,99979.0,2.0,6.0,ball,2.0,False,4
0.0,False,17.0,True,True,True,True,True,instruct_3,,instruct,0_1.6,2.0,yes,4326.0,3.0,True,108841.0,3.0,7.0,ball,3.0,False,4
0.0,False,17.0,False,True,True,False,True,instruct_5,,instruct,300_1.6,2.0,yes,9156.0,3.0,True,122729.0,4.0,8.0,ball,4.0,False,4
0.0,False,17.0,True,True,True,False,True,instruct_0,,instruct,300_1.6,1.0,no,1956.0,4.0,True,129722.0,5.0,9.0,ball,5.0,False,4
0.0,False,17.0,True,True,True,True,True,instruct_6,,instruct,0_1.6,1.0,yes,1282.0,5.0,True,135290.0,6.0,10.0,ball,6.0,False,4
0.0,False,17.0,True,True,True,False,True,instruct_1,,instruct,300_1.6,2.0,no,1557.0,6.0,True,140922.0,7.0,11.0,ball,7.0,False,4
0.0,False,17.0,True,True,True,True,True,instruct_2,,instruct,0_1.6,1.0,yes,1683.0,7.0,True,146746.0,8.0,12.0,ball,8.0,False,4
1.0,background,17.0,True,False,True,False,True,easy_13,,easy,300_1.4,1.0,no,1826.0,1.0,True,192642.0,1.0,16.0,ball,9.0,False,4
1.0,background,17.0,True,True,True,True,True,easy_6,,easy,0_1.4,1.0,yes,1556.0,2.0,True,198961.0,2.0,17.0,ball,10.0,False,4
1.0,background,17.0,True,False,True,False,True,easy_1,,easy,300_1.4,1.0,no,4756.0,3.0,True,208577.0,3.0,18.0,ball,11.0,False,4
1.0,background,17.0,True,False,True,True,True,easy_3,,easy,0_1.4,1.0,yes,1732.0,4.0,True,214464.0,4.0,19.0,ball,12.0,False,4
1.0,background,17.0,True,False,True,False,True,easy_8,,easy,300_1.4,1.0,no,1347.0,5.0,True,219812.0,5.0,20.0,ball,13.0,False,4
1.0,background,17.0,True,False,True,True,True,easy_11,,easy,0_1.4,1.0,yes,1188.0,6.0,True,224722.0,6.0,21.0,ball,14.0,False,4
1.0,background,17.0,True,True,True,True,True,easy_2,,easy,0_1.4,1.0,yes,1013.0,7.0,True,229778.0,7.0,22.0,ball,15.0,False,4
1.0,background,17.0,True,True,True,False,True,easy_0,,easy,300_1.4,1.0,no,2131.0,8.0,True,235922.0,8.0,23.0,ball,16.0,False,4
1.0,background,17.0,True,True,True,True,True,easy_7,,easy,0_1.4,1.0,yes,1299.0,9.0,True,241042.0,9.0,24.0,ball,17.0,False,4
1.0,background,17.0,True,True,True,True,True,control_4,,control,control,0.0,yes,1732.0,10.0,True,258940.0,10.0,25.0,ball,18.0,False,4
1.0,background,17.0,True,True,True,True,True,easy_10,,easy,0_1.4,1.0,yes,1492.0,11.0,True,264257.0,11.0,26.0,ball,19.0,False,4
1.0,background,17.0,True,True,True,False,True,easy_4,,easy,300_1.4,1.0,no,1348.0,12.0,True,269345.0,12.0,27.0,ball,20.0,False,4
1.0,background,17.0,True,False,True,True,True,easy_14,,easy,0_1.4,1.0,yes,1236.0,13.0,True,274385.0,13.0,28.0,ball,21.0,False,4
2.0,background,17.0,True,True,True,False,True,easy_8,,easy,300_1.4,1.0,no,1221.0,1.0,True,284000.0,1.0,30.0,ball,22.0,False,4
2.0,background,17.0,True,True,True,True,True,easy_14,,easy,0_1.4,1.0,yes,3333.0,2.0,True,291088.0,2.0,31.0,ball,23.0,False,4
2.0,background,17.0,True,False,True,True,True,easy_7,,easy,0_1.4,1.0,yes,1844.0,3.0,True,296720.0,3.0,32.0,ball,24.0,False,4
2.0,background,17.0,True,False,True,True,True,standard_10,,standard,0_2.2,1.0,yes,1397.0,4.0,True,302850.0,4.0,33.0,ball,25.0,False,4
2.0,background,17.0,True,True,True,False,True,easy_13,,easy,300_1.4,1.0,no,1364.0,5.0,True,307937.0,5.0,34.0,ball,26.0,False,4
2.0,background,17.0,True,True,True,False,True,easy_9,,easy,300_1.4,1.0,no,1252.0,6.0,True,312977.0,6.0,35.0,ball,27.0,False,4
2.0,background,17.0,True,True,True,False,True,easy_12,,easy,300_1.4,1.0,no,1220.0,7.0,True,318067.0,7.0,36.0,ball,28.0,False,4
2.0,background,17.0,True,True,True,False,True,standard_1,,standard,200_2.2,2.0,no,1124.0,8.0,True,324192.0,8.0,37.0,ball,29.0,False,4
2.0,background,17.0,True,False,True,False,True,easy_0,,easy,300_1.4,1.0,no,1380.0,9.0,True,329315.0,9.0,38.0,ball,30.0,False,4
2.0,background,17.0,True,False,True,False,True,easy_5,,easy,300_1.4,1.0,no,1092.0,10.0,True,334112.0,10.0,39.0,ball,31.0,False,4
2.0,background,17.0,True,True,True,False,True,standard_9,,standard,200_2.2,2.0,no,1091.0,11.0,True,339697.0,11.0,40.0,ball,32.0,False,4
2.0,background,17.0,True,True,True,False,True,control_3,,control,control,0.0,no,1556.0,12.0,True,344109.0,12.0,41.0,ball,33.0,False,4
2.0,background,17.0,True,False,True,True,True,easy_2,,easy,0_1.4,1.0,yes,1204.0,13.0,True,349185.0,13.0,42.0,ball,34.0,False,4
3.0,background,17.0,True,False,True,True,True,easy_10,,easy,0_1.4,1.0,yes,2355.0,1.0,True,365412.0,1.0,44.0,ball,35.0,False,4
3.0,background,17.0,False,True,True,True,True,standard_15,,standard,0_2.2,2.0,no,1508.0,1.0,True,371633.0,2.0,45.0,ball,36.0,False,4
3.0,background,17.0,True,True,True,False,True,easy_1,,easy,300_1.4,1.0,no,1203.0,2.0,True,376608.0,3.0,46.0,ball,37.0,False,4
3.0,background,17.0,False,True,True,True,True,standard_18,,standard,0_2.2,1.0,no,1828.0,2.0,True,383090.0,4.0,47.0,ball,38.0,False,4
3.0,background,17.0,True,True,True,True,True,easy_3,,easy,0_1.4,1.0,yes,1316.0,3.0,True,388400.0,5.0,48.0,ball,39.0,False,4
3.0,background,17.0,True,True,True,True,True,control_6,,control,control,0.0,yes,931.0,4.0,True,392269.0,6.0,49.0,ball,40.0,False,4
3.0,background,17.0,False,False,True,False,True,standard_4,,standard,200_2.2,1.0,yes,2340.0,4.0,True,399328.0,7.0,50.0,ball,41.0,False,4
3.0,background,17.0,True,False,True,False,True,easy_4,,easy,300_1.4,1.0,no,1123.0,5.0,True,404111.0,8.0,51.0,ball,42.0,False,4
3.0,background,17.0,True,False,True,True,True,standard_19,,standard,0_2.2,2.0,yes,1428.0,6.0,True,409985.0,9.0,52.0,ball,43.0,False,4
3.0,background,17.0,True,True,True,True,True,easy_11,,easy,0_1.4,1.0,yes,899.0,7.0,True,414594.0,10.0,53.0,ball,44.0,False,4
3.0,background,17.0,True,False,True,False,True,standard_20,,standard,200_2.2,1.0,no,1492.0,8.0,True,420594.0,11.0,54.0,ball,45.0,False,4
3.0,background,17.0,False,False,True,True,True,easy_6,,easy,0_1.4,1.0,no,2388.0,8.0,True,426656.0,12.0,55.0,ball,46.0,False,4
3.0,background,17.0,False,True,True,True,True,standard_3,,standard,0_2.2,2.0,no,1060.0,8.0,True,432256.0,13.0,56.0,ball,47.0,False,4
4.0,background,17.0,True,False,True,False,True,easy_9,,easy,300_1.4,1.0,no,1139.0,1.0,True,442304.0,1.0,58.0,ball,48.0,False,4
4.0,background,17.0,False,True,True,False,True,standard_8,,standard,200_2.2,1.0,yes,1445.0,1.0,True,448384.0,2.0,59.0,ball,49.0,False,4
4.0,background,17.0,True,False,True,True,True,standard_2,,standard,0_2.2,1.0,yes,1684.0,2.0,True,454735.0,3.0,60.0,ball,50.0,False,4
4.0,background,17.0,True,False,True,True,True,standard_23,,standard,0_2.2,2.0,yes,1715.0,3.0,True,461071.0,4.0,61.0,ball,51.0,False,4
4.0,background,17.0,True,True,True,True,True,control_2,,control,control,0.0,yes,1044.0,4.0,True,464973.0,5.0,62.0,ball,52.0,False,4
4.0,background,17.0,True,True,True,False,True,standard_16,,standard,200_2.2,1.0,no,1349.0,5.0,True,470831.0,6.0,63.0,ball,53.0,False,4
4.0,background,17.0,False,False,True,False,True,standard_0,,standard,200_2.2,1.0,yes,1604.0,5.0,True,477504.0,7.0,64.0,ball,54.0,False,4
4.0,background,17.0,True,False,True,False,True,easy_12,,easy,300_1.4,1.0,no,1091.0,6.0,True,482287.0,8.0,65.0,ball,55.0,False,4
4.0,background,17.0,True,True,True,False,True,standard_5,,standard,200_2.2,2.0,no,1364.0,7.0,True,488193.0,9.0,66.0,ball,56.0,False,4
4.0,background,17.0,True,True,True,False,True,easy_5,,easy,300_1.4,1.0,no,1092.0,8.0,True,493008.0,10.0,67.0,ball,57.0,False,4
4.0,background,17.0,True,False,True,False,True,standard_13,,standard,200_2.2,2.0,no,948.0,9.0,True,498481.0,11.0,68.0,ball,58.0,False,4
4.0,background,17.0,True,False,True,True,True,standard_7,,standard,0_2.2,2.0,yes,3091.0,10.0,True,505984.0,12.0,69.0,ball,59.0,False,4
4.0,background,17.0,True,True,True,False,True,standard_21,,standard,200_2.2,2.0,no,1332.0,11.0,True,511824.0,13.0,70.0,ball,60.0,False,4
5.0,background,17.0,True,True,True,False,True,control_5,,control,control,0.0,no,4757.0,1.0,True,527404.0,1.0,72.0,ball,61.0,False,4
5.0,background,17.0,True,False,True,True,True,standard_6,,standard,0_2.2,1.0,yes,1397.0,2.0,True,533712.0,2.0,73.0,ball,62.0,False,4
5.0,background,17.0,True,True,True,False,True,standard_12,,standard,200_2.2,1.0,no,1348.0,3.0,True,539551.0,3.0,74.0,ball,63.0,False,4
5.0,background,17.0,True,False,True,True,True,standard_11,,standard,0_2.2,2.0,yes,1493.0,4.0,True,545537.0,4.0,75.0,ball,64.0,False,4
5.0,background,17.0,False,False,True,False,True,standard_9,,standard,200_2.2,2.0,yes,2052.0,4.0,True,552015.0,5.0,76.0,ball,65.0,False,4
5.0,background,17.0,True,True,True,False,True,standard_20,,standard,200_2.2,1.0,no,1477.0,5.0,True,558086.0,6.0,77.0,ball,66.0,False,4
5.0,background,17.0,True,False,True,False,True,standard_1,,standard,200_2.2,2.0,no,1013.0,6.0,True,563503.0,7.0,78.0,ball,67.0,False,4
5.0,background,17.0,True,True,True,True,True,standard_10,,standard,0_2.2,1.0,yes,1220.0,7.0,True,569312.0,8.0,79.0,ball,68.0,False,4
5.0,background,17.0,True,False,True,True,True,standard_14,,standard,0_2.2,1.0,yes,997.0,8.0,True,574975.0,9.0,80.0,ball,69.0,False,4
5.0,background,17.0,True,True,True,True,True,standard_22,,standard,0_2.2,1.0,yes,996.0,9.0,True,580464.0,10.0,81.0,ball,70.0,False,4
5.0,background,17.0,True,True,True,False,True,standard_4,,standard,200_2.2,1.0,no,2419.0,10.0,True,587473.0,11.0,82.0,ball,71.0,False,4
5.0,background,17.0,True,True,True,False,True,standard_17,,standard,200_2.2,2.0,no,1251.0,11.0,True,593279.0,12.0,83.0,ball,72.0,False,4
5.0,background,17.0,False,False,True,True,True,standard_18,,standard,0_2.2,1.0,no,1508.0,11.0,True,599295.0,13.0,84.0,ball,73.0,False,4
6.0,background,17.0,False,True,True,False,True,standard_0,,standard,200_2.2,1.0,yes,1091.0,0.0,True,615040.0,1.0,86.0,ball,74.0,False,4
6.0,background,17.0,True,False,True,False,True,standard_16,,standard,200_2.2,1.0,no,1027.0,1.0,True,620608.0,2.0,87.0,ball,75.0,False,4
6.0,background,17.0,False,False,True,False,True,standard_8,,standard,200_2.2,1.0,yes,1539.0,1.0,True,626559.0,3.0,88.0,ball,76.0,False,4
6.0,background,17.0,True,True,True,True,True,control_0,,control,control,0.0,yes,1059.0,2.0,True,630541.0,4.0,89.0,ball,77.0,False,4
6.0,background,17.0,True,True,True,False,True,hard_4,,hard,100_3.2,2.0,no,1076.0,3.0,True,637191.0,5.0,90.0,ball,78.0,False,4
6.0,background,17.0,True,True,True,True,True,standard_2,,standard,0_2.2,1.0,yes,1140.0,4.0,True,642991.0,6.0,91.0,ball,79.0,False,4
6.0,background,17.0,True,True,True,False,True,hard_1,,hard,100_3.2,2.0,no,1011.0,5.0,True,649496.0,7.0,92.0,ball,80.0,False,4
6.0,background,17.0,False,False,True,True,True,standard_3,,standard,0_2.2,2.0,no,1156.0,5.0,True,655102.0,8.0,93.0,ball,81.0,False,4
6.0,background,17.0,True,False,True,False,True,hard_5,,hard,100_3.2,2.0,no,964.0,6.0,True,661622.0,9.0,94.0,ball,82.0,False,4
6.0,background,17.0,True,True,True,True,True,standard_23,,standard,0_2.2,2.0,yes,1267.0,7.0,True,667712.0,10.0,95.0,ball,83.0,False,4
6.0,background,17.0,True,True,True,True,True,standard_19,,standard,0_2.2,2.0,yes,1189.0,8.0,True,673343.0,11.0,96.0,ball,84.0,False,4
6.0,background,17.0,True,False,True,True,True,standard_15,,standard,0_2.2,2.0,yes,1187.0,9.0,True,679088.0,12.0,97.0,ball,85.0,False,4
6.0,background,17.0,True,True,True,False,True,standard_13,,standard,200_2.2,2.0,no,1043.0,10.0,True,684673.0,13.0,98.0,ball,86.0,False,4
7.0,background,17.0,False,True,True,True,True,hard_11,,hard,0_3.2,2.0,no,1412.0,0.0,True,695704.0,1.0,100.0,ball,87.0,False,4
7.0,background,17.0,True,False,True,False,True,standard_5,,standard,200_2.2,2.0,no,1269.0,1.0,True,701552.0,2.0,101.0,ball,88.0,False,4
7.0,background,17.0,True,False,True,False,True,hard_8,,hard,100_3.2,2.0,no,1587.0,2.0,True,708680.0,3.0,102.0,ball,89.0,False,4
7.0,background,17.0,True,False,True,True,True,standard_22,,standard,0_2.2,1.0,yes,1091.0,3.0,True,714176.0,4.0,103.0,ball,90.0,False,4
7.0,background,17.0,True,False,True,False,True,hard_12,,hard,100_3.2,2.0,no,1028.0,4.0,True,720712.0,5.0,104.0,ball,91.0,False,4
7.0,background,17.0,False,True,True,True,True,hard_14,,hard,0_3.2,2.0,no,1459.0,4.0,True,727718.0,6.0,105.0,ball,92.0,False,4
7.0,background,17.0,True,False,True,False,True,hard_13,,hard,100_3.2,2.0,no,1476.0,5.0,True,734647.0,7.0,106.0,ball,93.0,False,4
7.0,background,17.0,True,False,True,False,True,standard_21,,standard,200_2.2,2.0,no,2020.0,6.0,True,741087.0,8.0,107.0,ball,94.0,False,4
7.0,background,17.0,True,True,True,True,True,standard_6,,standard,0_2.2,1.0,yes,1012.0,7.0,True,746624.0,9.0,108.0,ball,95.0,False,4
7.0,background,17.0,True,True,True,True,True,standard_14,,standard,0_2.2,1.0,yes,883.0,8.0,True,751934.0,10.0,109.0,ball,96.0,False,4
7.0,background,17.0,False,True,True,True,True,hard_2,,hard,0_3.2,2.0,no,1300.0,8.0,True,759176.0,11.0,110.0,ball,97.0,False,4
7.0,background,17.0,True,True,True,False,True,control_7,,control,control,0.0,no,1300.0,9.0,True,763228.0,12.0,111.0,ball,98.0,False,4
7.0,background,17.0,False,True,True,True,True,standard_7,,standard,0_2.2,2.0,no,1188.0,9.0,True,768912.0,13.0,112.0,ball,99.0,False,4
8.0,background,17.0,True,True,True,False,True,hard_9,,hard,100_3.2,2.0,no,997.0,1.0,True,778840.0,1.0,114.0,ball,100.0,False,4
8.0,background,17.0,True,False,True,False,True,hard_4,,hard,100_3.2,2.0,no,1060.0,2.0,True,785367.0,2.0,115.0,ball,101.0,False,4
8.0,background,17.0,True,False,True,False,True,standard_17,,standard,200_2.2,2.0,no,1204.0,3.0,True,791022.0,3.0,116.0,ball,102.0,False,4
8.0,background,17.0,False,False,True,True,True,hard_6,,hard,0_3.2,2.0,no,1811.0,3.0,True,798408.0,4.0,117.0,ball,103.0,False,4
8.0,background,17.0,True,True,True,False,True,control_1,,control,control,0.0,no,1140.0,4.0,True,802363.0,5.0,118.0,ball,104.0,False,4
8.0,background,17.0,True,True,True,True,True,standard_11,,standard,0_2.2,2.0,yes,2068.0,5.0,True,808943.0,6.0,119.0,ball,105.0,False,4
8.0,background,17.0,True,False,True,False,True,standard_12,,standard,200_2.2,1.0,no,1205.0,6.0,True,814657.0,7.0,120.0,ball,106.0,False,4
8.0,background,17.0,False,False,True,False,True,hard_1,,hard,100_3.2,2.0,yes,3412.0,6.0,True,823639.0,8.0,121.0,ball,107.0,False,4
8.0,background,17.0,False,False,True,True,True,hard_7,,hard,0_3.2,2.0,no,2452.0,6.0,True,831574.0,9.0,122.0,ball,108.0,False,4
8.0,background,17.0,True,True,True,True,True,hard_3,,hard,0_3.2,2.0,yes,1556.0,7.0,True,838681.0,10.0,123.0,ball,109.0,False,4
8.0,background,17.0,True,True,True,False,True,hard_5,,hard,100_3.2,2.0,no,1171.0,8.0,True,845589.0,11.0,124.0,ball,110.0,False,4
8.0,background,17.0,True,True,True,False,True,hard_0,,hard,100_3.2,2.0,no,3077.0,9.0,True,854184.0,12.0,125.0,ball,111.0,False,4
8.0,background,17.0,False,False,True,True,True,hard_10,,hard,0_3.2,2.0,no,3076.0,9.0,True,862696.0,13.0,126.0,ball,112.0,False,4
9.0,background,17.0,True,False,True,True,True,hard_2,,hard,0_3.2,2.0,yes,2052.0,1.0,True,873670.0,1.0,128.0,ball,113.0,False,4
9.0,background,17.0,True,False,True,False,True,hard_9,,hard,100_3.2,2.0,no,1220.0,2.0,True,880296.0,2.0,129.0,ball,114.0,False,4
9.0,background,17.0,False,False,True,True,True,hard_14,,hard,0_3.2,2.0,no,1844.0,2.0,True,887623.0,3.0,130.0,ball,115.0,False,4
9.0,background,17.0,False,False,True,True,True,hard_11,,hard,0_3.2,2.0,no,1779.0,2.0,True,894968.0,4.0,131.0,ball,116.0,False,4
9.0,background,17.0,False,True,True,False,True,hard_8,,hard,100_3.2,2.0,yes,1956.0,2.0,True,902343.0,5.0,132.0,ball,117.0,False,4
9.0,background,17.0,False,False,True,True,True,hard_3,,hard,0_3.2,2.0,no,1988.0,2.0,True,909880.0,6.0,133.0,ball,118.0,False,4
9.0,background,17.0,False,True,True,True,True,hard_6,,hard,0_3.2,2.0,no,1380.0,2.0,True,916693.0,7.0,134.0,ball,119.0,False,4
9.0,background,17.0,True,False,True,False,True,hard_0,,hard,100_3.2,2.0,no,1780.0,3.0,True,924070.0,8.0,135.0,ball,120.0,False,4
9.0,background,17.0,True,True,True,False,True,hard_12,,hard,100_3.2,2.0,no,900.0,4.0,True,930535.0,9.0,136.0,ball,121.0,False,4
9.0,background,17.0,True,True,True,False,True,hard_13,,hard,100_3.2,2.0,no,2116.0,5.0,True,938039.0,10.0,137.0,ball,122.0,False,4
9.0,background,17.0,False,True,True,True,True,hard_7,,hard,0_3.2,2.0,no,1507.0,5.0,True,944950.0,11.0,138.0,ball,123.0,False,4
9.0,background,17.0,True,True,True,True,True,hard_10,,hard,0_3.2,2.0,yes,1716.0,6.0,True,952071.0,12.0,139.0,ball,124.0,False,4
10.0,background,17.0,False,True,True,False,True,critical_2,,critical,100_3.2,2.0,yes,2852.0,0.0,False,962984.0,1.0,141.0,ball,125.0,False,4
10.0,background,17.0,True,True,True,True,True,critical_3,,critical,0_3.2,2.0,yes,3828.0,1.0,False,968824.0,2.0,142.0,ball,126.0,False,4
10.0,background,17.0,True,True,True,False,True,critical_4,,critical,100_3.2,2.0,no,1876.0,2.0,False,972632.0,3.0,143.0,ball,127.0,False,4
10.0,background,17.0,False,True,True,True,True,critical_5,,critical,0_3.2,2.0,no,3987.0,2.0,False,978521.0,4.0,144.0,ball,128.0,False,4
10.0,background,17.0,False,True,True,False,False,critical_6,,critical,100_3.2,2.0,yes,1829.0,2.0,False,982265.0,5.0,145.0,ball,129.0,False,4
10.0,background,17.0,True,True,True,False,True,filler_1,,filler,200_2.2,2.0,no,2643.0,3.0,False,986808.0,6.0,146.0,ball,130.0,False,4
10.0,background,17.0,False,True,True,False,True,filler_5,,filler,200_2.2,2.0,yes,2293.0,3.0,False,990905.0,7.0,147.0,ball,131.0,False,4
10.0,background,17.0,True,True,True,True,False,critical_7,,critical,0_3.2,2.0,yes,2132.0,4.0,False,994793.0,8.0,148.0,ball,132.0,False,4
10.0,background,17.0,True,True,True,False,True,filler_4,,filler,200_2.2,1.0,no,2372.0,5.0,False,999001.0,9.0,149.0,ball,133.0,False,4
10.0,background,17.0,True,True,True,False,True,filler_0,,filler,200_2.2,1.0,no,4211.0,6.0,False,1005000.0,10.0,150.0,ball,134.0,False,4
10.0,background,17.0,False,True,True,False,False,critical_0,,critical,100_3.2,2.0,yes,2004.0,6.0,False,1008921.0,11.0,151.0,ball,135.0,False,4
10.0,background,17.0,False,True,True,True,True,filler_2,,filler,0_2.2,1.0,no,1940.0,6.0,False,1013000.0,12.0,152.0,ball,136.0,False,4
10.0,background,17.0,True,True,True,True,True,filler_3,,filler,0_2.2,2.0,yes,4421.0,7.0,False,1019209.0,13.0,153.0,ball,137.0,False,4
10.0,background,17.0,True,True,True,True,False,critical_1,,critical,0_3.2,2.0,yes,2307.0,8.0,False,1023592.0,14.0,154.0,ball,138.0,False,4
0.0,False,0.0,True,True,True,True,True,instruct_2,,instruct,0_1.6,1.0,yes,4553.0,1.0,True,244679.0,1.0,9.0,ball,1.0,False,5
0.0,False,0.0,True,True,True,True,True,instruct_3,,instruct,0_1.6,2.0,yes,2952.0,2.0,True,253054.0,2.0,10.0,ball,2.0,False,5
0.0,False,0.0,True,True,True,False,True,instruct_4,,instruct,300_1.6,1.0,no,3111.0,3.0,True,261773.0,3.0,11.0,ball,3.0,False,5
0.0,False,0.0,True,True,True,True,True,instruct_6,,instruct,0_1.6,1.0,yes,2322.0,4.0,True,269576.0,4.0,12.0,ball,4.0,False,5
0.0,False,0.0,True,True,True,False,True,instruct_0,,instruct,300_1.6,1.0,no,4256.0,5.0,True,279107.0,5.0,13.0,ball,5.0,False,5
0.0,False,0.0,True,True,True,False,True,instruct_1,,instruct,300_1.6,2.0,no,2234.0,6.0,True,287265.0,6.0,14.0,ball,6.0,False,5
0.0,False,0.0,True,True,True,True,True,instruct_7,,instruct,0_1.6,2.0,yes,2558.0,7.0,True,294919.0,7.0,15.0,ball,7.0,False,5
0.0,False,0.0,True,True,True,False,True,instruct_5,,instruct,300_1.6,2.0,no,2189.0,8.0,True,302415.0,8.0,16.0,ball,8.0,False,5
1.0,background,0.0,False,False,True,True,True,easy_6,,easy,0_1.4,1.0,no,2268.0,0.0,False,333180.0,1.0,20.0,ball,9.0,False,5
1.0,background,0.0,False,False,True,False,True,easy_4,,easy,300_1.4,1.0,yes,2201.0,0.0,False,339346.0,2.0,21.0,ball,10.0,False,5
1.0,background,0.0,True,True,True,False,True,easy_13,,easy,300_1.4,1.0,no,3505.0,1.0,False,345335.0,3.0,22.0,ball,11.0,False,5
1.0,background,0.0,True,False,True,False,True,easy_5,,easy,300_1.4,1.0,no,1825.0,2.0,False,350047.0,4.0,23.0,ball,12.0,False,5
1.0,background,0.0,False,True,True,False,True,easy_9,,easy,300_1.4,1.0,yes,1602.0,2.0,False,353723.0,5.0,24.0,ball,13.0,False,5
1.0,background,0.0,True,True,True,True,True,control_6,,control,control,0.0,yes,1347.0,3.0,False,357846.0,6.0,25.0,ball,14.0,False,5
1.0,background,0.0,True,False,True,True,True,easy_2,,easy,0_1.4,1.0,yes,1420.0,4.0,False,361435.0,7.0,26.0,ball,15.0,False,5
1.0,background,0.0,False,True,True,True,True,easy_3,,easy,0_1.4,1.0,no,4225.0,4.0,False,367852.0,8.0,27.0,ball,16.0,False,5
1.0,background,0.0,True,False,True,True,True,easy_11,,easy,0_1.4,1.0,yes,1502.0,5.0,False,371669.0,9.0,28.0,ball,17.0,False,5
1.0,background,0.0,True,True,True,True,True,easy_7,,easy,0_1.4,1.0,yes,1569.0,6.0,False,375373.0,10.0,29.0,ball,18.0,False,5
1.0,background,0.0,True,True,True,False,True,easy_12,,easy,300_1.4,1.0,no,2480.0,7.0,False,379931.0,11.0,30.0,ball,19.0,False,5
1.0,background,0.0,True,True,True,False,True,easy_0,,easy,300_1.4,1.0,no,1396.0,8.0,False,383497.0,12.0,31.0,ball,20.0,False,5
1.0,background,0.0,False,False,True,False,True,easy_1,,easy,300_1.4,1.0,yes,1717.0,8.0,False,387224.0,13.0,32.0,ball,21.0,False,5
2.0,background,0.0,True,True,True,True,True,control_0,,control,control,0.0,yes,1782.0,1.0,False,402315.0,1.0,34.0,ball,22.0,False,5
2.0,background,0.0,False,False,True,True,True,standard_2,,standard,0_2.2,1.0,no,1739.0,1.0,False,406075.0,2.0,35.0,ball,23.0,False,5
2.0,background,0.0,True,False,True,True,True,easy_7,,easy,0_1.4,1.0,yes,1493.0,2.0,False,409584.0,3.0,36.0,ball,24.0,False,5
2.0,background,0.0,True,False,True,False,True,easy_0,,easy,300_1.4,1.0,no,1617.0,3.0,False,413162.0,4.0,37.0,ball,25.0,False,5
2.0,background,0.0,True,True,True,True,True,easy_11,,easy,0_1.4,1.0,yes,1401.0,4.0,False,416628.0,5.0,38.0,ball,26.0,False,5
2.0,background,0.0,False,False,True,True,True,easy_10,,easy,0_1.4,1.0,no,1611.0,4.0,False,420288.0,6.0,39.0,ball,27.0,False,5
2.0,background,0.0,False,True,True,False,True,easy_1,,easy,300_1.4,1.0,yes,1367.0,4.0,False,423433.0,7.0,40.0,ball,28.0,False,5
2.0,background,0.0,True,True,True,False,True,easy_8,,easy,300_1.4,1.0,no,2296.0,5.0,False,427622.0,8.0,41.0,ball,29.0,False,5
2.0,background,0.0,True,True,True,True,True,standard_19,,standard,0_2.2,2.0,yes,1722.0,6.0,False,431201.0,9.0,42.0,ball,30.0,False,5
2.0,background,0.0,False,True,True,True,True,easy_14,,easy,0_1.4,1.0,no,3105.0,6.0,False,437027.0,10.0,43.0,ball,31.0,False,5
2.0,background,0.0,False,True,True,False,True,standard_8,,standard,200_2.2,1.0,yes,2602.0,6.0,False,441484.0,11.0,44.0,ball,32.0,False,5
2.0,background,0.0,False,True,True,False,True,easy_4,,easy,300_1.4,1.0,yes,1093.0,6.0,False,444452.0,12.0,45.0,ball,33.0,False,5
2.0,background,0.0,False,False,True,False,True,easy_12,,easy,300_1.4,1.0,yes,2027.0,6.0,False,448343.0,13.0,46.0,ball,34.0,False,5
3.0,background,0.0,True,True,True,False,True,control_5,,control,control,0.0,no,1678.0,1.0,False,471675.0,1.0,48.0,ball,35.0,False,5
3.0,background,0.0,False,False,True,False,True,easy_13,,easy,300_1.4,1.0,yes,1369.0,1.0,False,475048.0,2.0,49.0,ball,36.0,False,5
3.0,background,0.0,True,False,True,True,True,standard_23,,standard,0_2.2,2.0,yes,1249.0,2.0,False,478354.0,3.0,50.0,ball,37.0,False,5
3.0,background,0.0,False,False,True,True,True,easy_3,,easy,0_1.4,1.0,no,2178.0,2.0,False,482419.0,4.0,51.0,ball,38.0,False,5
3.0,background,0.0,True,True,True,True,True,easy_6,,easy,0_1.4,1.0,yes,2188.0,3.0,False,486553.0,5.0,52.0,ball,39.0,False,5
3.0,background,0.0,True,True,True,False,True,standard_4,,standard,200_2.2,1.0,no,1306.0,4.0,False,489852.0,6.0,53.0,ball,40.0,False,5
3.0,background,0.0,True,True,True,True,True,easy_2,,easy,0_1.4,1.0,yes,776.0,5.0,False,492393.0,7.0,54.0,ball,41.0,False,5
3.0,background,0.0,False,True,True,False,True,easy_5,,easy,300_1.4,1.0,yes,1369.0,5.0,False,495795.0,8.0,55.0,ball,42.0,False,5
3.0,background,0.0,True,False,True,True,True,standard_15,,standard,0_2.2,2.0,yes,922.0,6.0,False,498679.0,9.0,56.0,ball,43.0,False,5
3.0,background,0.0,True,True,True,True,True,standard_3,,standard,0_2.2,2.0,yes,950.0,7.0,False,501512.0,10.0,57.0,ball,44.0,False,5
3.0,background,0.0,False,False,True,False,True,easy_9,,easy,300_1.4,1.0,yes,840.0,7.0,False,504163.0,11.0,58.0,ball,45.0,False,5
3.0,background,0.0,True,False,True,True,True,standard_6,,standard,0_2.2,1.0,yes,1370.0,8.0,False,508592.0,12.0,59.0,ball,46.0,False,5
3.0,background,0.0,False,True,True,False,True,standard_9,,standard,200_2.2,2.0,yes,1309.0,8.0,False,511729.0,13.0,60.0,ball,47.0,False,5
4.0,background,0.0,False,True,True,False,True,standard_0,,standard,200_2.2,1.0,yes,1020.0,0.0,False,518350.0,1.0,62.0,ball,48.0,False,5
4.0,background,0.0,True,False,True,True,True,easy_14,,easy,0_1.4,1.0,yes,1657.0,1.0,False,522459.0,2.0,63.0,ball,49.0,False,5
4.0,background,0.0,True,False,True,False,True,standard_12,,standard,200_2.2,1.0,no,1327.0,2.0,False,525912.0,3.0,64.0,ball,50.0,False,5
4.0,background,0.0,True,False,True,False,True,standard_21,,standard,200_2.2,2.0,no,2130.0,3.0,False,529953.0,4.0,65.0,ball,51.0,False,5
4.0,background,0.0,False,False,True,True,True,standard_7,,standard,0_2.2,2.0,no,2288.0,3.0,False,556567.0,5.0,66.0,ball,52.0,False,5
4.0,background,0.0,True,False,True,False,True,easy_8,,easy,300_1.4,1.0,no,3167.0,4.0,False,561859.0,6.0,67.0,ball,53.0,False,5
4.0,background,0.0,False,False,True,False,True,standard_13,,standard,200_2.2,2.0,yes,1296.0,4.0,False,565121.0,7.0,68.0,ball,54.0,False,5
4.0,background,0.0,True,True,True,True,True,standard_18,,standard,0_2.2,1.0,yes,915.0,5.0,False,569320.0,8.0,69.0,ball,55.0,False,5
4.0,background,0.0,True,True,True,False,True,control_3,,control,control,0.0,no,1159.0,6.0,False,572801.0,9.0,70.0,ball,56.0,False,5
4.0,background,0.0,True,True,True,True,True,easy_10,,easy,0_1.4,1.0,yes,2716.0,7.0,False,577769.0,10.0,71.0,ball,57.0,False,5
4.0,background,0.0,True,True,True,True,True,standard_22,,standard,0_2.2,1.0,yes,2080.0,8.0,False,581996.0,11.0,72.0,ball,58.0,False,5
4.0,background,0.0,True,True,True,False,True,standard_20,,standard,200_2.2,1.0,no,2915.0,9.0,False,586801.0,12.0,73.0,ball,59.0,False,5
4.0,background,0.0,True,False,True,False,True,standard_17,,standard,200_2.2,2.0,no,1347.0,10.0,False,590963.0,13.0,74.0,ball,60.0,False,5
5.0,background,0.0,True,True,True,True,True,standard_6,,standard,0_2.2,1.0,yes,1876.0,1.0,False,654258.0,1.0,76.0,ball,61.0,False,5
5.0,background,0.0,False,True,True,False,True,standard_16,,standard,200_2.2,1.0,yes,1201.0,1.0,False,660839.0,2.0,77.0,ball,62.0,False,5
5.0,background,0.0,True,True,True,True,True,control_4,,control,control,0.0,yes,1357.0,2.0,False,664195.0,3.0,78.0,ball,63.0,False,5
5.0,background,0.0,False,True,True,True,True,standard_14,,standard,0_2.2,1.0,no,1800.0,2.0,False,667871.0,4.0,79.0,ball,64.0,False,5
5.0,background,0.0,True,True,True,True,True,standard_15,,standard,0_2.2,2.0,yes,856.0,3.0,False,670694.0,5.0,80.0,ball,65.0,False,5
5.0,background,0.0,True,False,True,False,True,standard_8,,standard,200_2.2,1.0,no,1273.0,4.0,False,673943.0,6.0,81.0,ball,66.0,False,5
5.0,background,0.0,True,True,True,True,True,standard_2,,standard,0_2.2,1.0,yes,1529.0,5.0,False,677576.0,7.0,82.0,ball,67.0,False,5
5.0,background,0.0,True,False,True,True,True,standard_11,,standard,0_2.2,2.0,yes,989.0,6.0,False,680824.0,8.0,83.0,ball,68.0,False,5
5.0,background,0.0,False,False,True,True,True,standard_19,,standard,0_2.2,2.0,no,2070.0,6.0,False,684846.0,9.0,84.0,ball,69.0,False,5
5.0,background,0.0,True,False,True,False,True,standard_9,,standard,200_2.2,2.0,no,2019.0,7.0,False,688724.0,10.0,85.0,ball,70.0,False,5
5.0,background,0.0,True,False,True,True,True,standard_10,,standard,0_2.2,1.0,yes,1529.0,8.0,False,692453.0,11.0,86.0,ball,71.0,False,5
