key_press,rt,time_elapsed,trial_index,trial_type,pid
32.0,45058.0,45066.0,0.0,text,0
32.0,147678.0,193760.0,1.0,text,0
81.0,114635.0,309401.0,2.0,text,0
32.0,5582.0,366719.0,4.0,text,0
32.0,74491.0,532820.0,14.0,text,0
32.0,1903.0,535734.0,15.0,text,0
32.0,2919.0,624999.0,29.0,text,0
32.0,1606.0,689772.0,43.0,text,0
32.0,1299.0,758830.0,57.0,text,0
32.0,1467.0,849979.0,71.0,text,0
32.0,5102.0,915417.0,85.0,text,0
32.0,1675.0,970853.0,99.0,text,0
32.0,1300.0,1026822.0,113.0,text,0
32.0,104284.0,1174568.0,127.0,text,0
32.0,1631.0,1228133.0,140.0,text,0
32.0,1563.0,1313358.0,155.0,text,0
32.0,11380.0,11387.0,0.0,text,1
32.0,69822.0,82221.0,1.0,text,1
81.0,33646.0,116883.0,2.0,text,1
81.0,23461.0,166689.0,4.0,text,1
32.0,3128.0,185124.0,6.0,text,1
32.0,7143.0,245742.0,16.0,text,1
32.0,1444.0,248189.0,17.0,text,1
32.0,2269.0,333502.0,31.0,text,1
32.0,32223.0,446642.0,45.0,text,1
32.0,78842.0,599793.0,59.0,text,1
32.0,1259.0,675659.0,73.0,text,1
32.0,1736.0,766238.0,87.0,text,1
32.0,1443.0,858775.0,101.0,text,1
32.0,942.0,945181.0,115.0,text,1
32.0,1504.0,1047179.0,129.0,text,1
32.0,3838.0,1136218.0,142.0,text,1
32.0,11501.0,1209401.0,157.0,text,1
32.0,3066.0,3072.0,0.0,text,2
32.0,31108.0,35180.0,1.0,text,2
81.0,76651.0,112845.0,2.0,text,2
81.0,63186.0,218893.0,4.0,text,2
32.0,5376.0,317603.0,6.0,text,2
32.0,6944.0,389869.0,16.0,text,2
32.0,1805.0,392676.0,17.0,text,2
32.0,2219.0,477845.0,31.0,text,2
32.0,993.0,548533.0,45.0,text,2
32.0,1000.0,618492.0,59.0,text,2
32.0,2467.0,692429.0,73.0,text,2
32.0,1269.0,766733.0,87.0,text,2
32.0,860.0,842300.0,101.0,text,2
32.0,853.0,925916.0,115.0,text,2
32.0,1616.0,1008981.0,129.0,text,2
32.0,5337.0,1090789.0,142.0,text,2
32.0,1673.0,1150188.0,157.0,text,2
32.0,4425.0,4430.0,0.0,text,3
32.0,15645.0,21084.0,1.0,text,3
81.0,39860.0,61958.0,2.0,text,3
81.0,32171.0,117229.0,4.0,text,3
32.0,5091.0,135808.0,6.0,text,3
32.0,10285.0,211352.0,16.0,text,3
32.0,2047.0,214404.0,17.0,text,3
32.0,1813.0,300777.0,31.0,text,3
32.0,2705.0,394479.0,45.0,text,3
32.0,1275.0,478440.0,59.0,text,3
32.0,1008.0,566374.0,73.0,text,3
32.0,1002.0,664946.0,87.0,text,3
32.0,1293.0,754666.0,101.0,text,3
32.0,963.0,849649.0,115.0,text,3
32.0,986.0,953658.0,129.0,text,3
32.0,6041.0,1059642.0,142.0,text,3
32.0,4800.0,1151194.0,157.0,text,3
32.0,7754.0,7759.0,0.0,text,4
32.0,11853.0,20636.0,1.0,text,4
81.0,30226.0,51885.0,2.0,text,4
32.0,2702.0,77419.0,4.0,text,4
32.0,35225.0,183004.0,14.0,text,4
32.0,1668.0,185675.0,15.0,text,4
32.0,3132.0,278539.0,29.0,text,4
32.0,5275.0,355482.0,43.0,text,4
32.0,3852.0,437130.0,57.0,text,4
32.0,5755.0,518602.0,71.0,text,4
32.0,8763.0,609082.0,85.0,text,4
32.0,2857.0,688553.0,99.0,text,4
32.0,2314.0,772249.0,113.0,text,4
32.0,2337.0,866057.0,127.0,text,4
32.0,4496.0,957592.0,140.0,text,4
32.0,2274.0,1026888.0,155.0,text,4
32.0,6623.0,6629.0,0.0,text,5
32.0,59026.0,66671.0,1.0,text,5
81.0,70349.0,138062.0,2.0,text,5
81.0,13203.0,175598.0,4.0,text,5
81.0,1574.0,203501.0,6.0,text,5
32.0,15801.0,232161.0,8.0,text,5
32.0,18043.0,321486.0,18.0,text,5
32.0,3110.0,325639.0,19.0,text,5
32.0,7512.0,395761.0,33.0,text,5
32.0,18456.0,467828.0,47.0,text,5
32.0,2326.0,515075.0,61.0,text,5
32.0,57658.0,649647.0,75.0,text,5
32.0,15822.0,717178.0,89.0,text,5
32.0,48794.0,808616.0,103.0,text,5
32.0,346521.0,1212672.0,117.0,text,5
32.0,185641.0,1445100.0,131.0,text,5
32.0,11369.0,1493754.0,144.0,text,5
32.0,2416.0,1547751.0,159.0,text,5
32.0,2345.0,2350.0,0.0,text,6
32.0,22416.0,25774.0,1.0,text,6
81.0,38218.0,65004.0,2.0,text,6
32.0,2963.0,98510.0,4.0,text,6
32.0,6402.0,166900.0,14.0,text,6
32.0,1050.0,168955.0,15.0,text,6
32.0,911.0,239248.0,29.0,text,6
32.0,291.0,302827.0,43.0,text,6
32.0,1263.0,371358.0,57.0,text,6
32.0,872.0,436252.0,71.0,text,6
32.0,1867.0,506127.0,85.0,text,6
32.0,1677.0,595194.0,99.0,text,6
32.0,849.0,666764.0,113.0,text,6
32.0,704.0,739050.0,127.0,text,6
32.0,797.0,815476.0,140.0,text,6
32.0,2683.0,854292.0,155.0,text,6
32.0,12570.0,12577.0,0.0,text,7
32.0,6859.0,20448.0,1.0,text,7
81.0,18027.0,39482.0,2.0,text,7
81.0,23026.0,83167.0,4.0,text,7
81.0,2435.0,102051.0,6.0,text,7
32.0,1466.0,111179.0,8.0,text,7
32.0,5529.0,171459.0,18.0,text,7
32.0,1388.0,173858.0,19.0,text,7
32.0,751.0,208005.0,33.0,text,7
32.0,246.0,237555.0,47.0,text,7
32.0,804.0,265226.0,61.0,text,7
32.0,52.0,292140.0,75.0,text,7
32.0,285.0,326121.0,89.0,text,7
32.0,318.0,352965.0,103.0,text,7
32.0,357.0,380424.0,117.0,text,7
32.0,859.0,413308.0,131.0,text,7
32.0,261.0,435300.0,144.0,text,7
32.0,2957.0,467577.0,159.0,text,7
32.0,8705.0,8708.0,0.0,text,8
32.0,25687.0,35422.0,1.0,text,8
81.0,70794.0,107227.0,2.0,text,8
81.0,8268.0,150626.0,4.0,text,8
81.0,19769.0,197249.0,6.0,text,8
32.0,2858.0,219487.0,8.0,text,8
32.0,11058.0,315984.0,18.0,text,8
32.0,1435.0,318438.0,19.0,text,8
32.0,2702.0,406146.0,33.0,text,8
32.0,1758.0,478064.0,47.0,text,8
32.0,1576.0,549478.0,61.0,text,8
32.0,1660.0,609072.0,75.0,text,8
32.0,1800.0,731449.0,89.0,text,8
32.0,1631.0,800672.0,103.0,text,8
32.0,8288.0,857370.0,117.0,text,8
32.0,1608.0,918076.0,131.0,text,8
32.0,2252.0,970618.0,144.0,text,8
32.0,1664.0,1036760.0,159.0,text,8
32.0,3364.0,3370.0,0.0,text,9
32.0,8822.0,13204.0,1.0,text,9
81.0,31863.0,46077.0,2.0,text,9
81.0,10788.0,78557.0,4.0,text,9
32.0,2576.0,91436.0,6.0,text,9
32.0,5029.0,163344.0,16.0,text,9
32.0,1485.0,165833.0,17.0,text,9
32.0,1092.0,244221.0,31.0,text,9
32.0,1307.0,323836.0,45.0,text,9
32.0,1866.0,407705.0,59.0,text,9
32.0,992.0,487445.0,73.0,text,9
32.0,1239.0,569562.0,87.0,text,9
32.0,892.0,651520.0,101.0,text,9
32.0,1286.0,735868.0,115.0,text,9
32.0,22100.0,949360.0,129.0,text,9
32.0,2597.0,1042921.0,142.0,text,9
32.0,1789.0,1100281.0,157.0,text,9
32.0,1558.0,1571.0,0.0,text,10
32.0,10846.0,13456.0,1.0,text,10
81.0,24201.0,38747.0,2.0,text,10
32.0,1352.0,70133.0,4.0,text,10
32.0,5464.0,141196.0,14.0,text,10
32.0,943.0,143160.0,15.0,text,10
32.0,12323.0,231916.0,29.0,text,10
32.0,9061.0,307521.0,43.0,text,10
32.0,1584.0,392222.0,57.0,text,10
32.0,3416.0,480362.0,71.0,text,10
32.0,1038.0,540868.0,85.0,text,10
32.0,1859.0,628181.0,99.0,text,10
32.0,1757.0,705958.0,113.0,text,10
32.0,1257.0,769288.0,127.0,text,10
32.0,686.0,818126.0,140.0,text,10
32.0,910.0,868967.0,155.0,text,10
32.0,7399.0,7412.0,0.0,text,11
32.0,29901.0,38345.0,1.0,text,11
81.0,141447.0,180817.0,2.0,text,11
81.0,7660.0,414538.0,4.0,text,11
32.0,17487.0,462290.0,6.0,text,11
32.0,10254.0,586944.0,16.0,text,11
32.0,2679.0,590659.0,17.0,text,11
32.0,6202.0,744673.0,31.0,text,11
32.0,4491.0,911728.0,45.0,text,11
32.0,4080.0,1047081.0,59.0,text,11
32.0,7674.0,1240645.0,73.0,text,11
32.0,2965.0,1391632.0,87.0,text,11
32.0,3985.0,1583832.0,101.0,text,11
32.0,11192.0,1767199.0,115.0,text,11
32.0,9001.0,1948051.0,129.0,text,11
32.0,6102.0,2142115.0,142.0,text,11
32.0,2709.0,2296388.0,157.0,text,11
32.0,6273.0,6290.0,0.0,text,12
32.0,32168.0,39490.0,1.0,text,12
81.0,168854.0,209388.0,2.0,text,12
32.0,3094.0,230145.0,4.0,text,12
32.0,3603.0,298028.0,14.0,text,12
32.0,758.0,299793.0,15.0,text,12
32.0,1484.0,388224.0,29.0,text,12
32.0,835.0,460779.0,43.0,text,12
32.0,809.0,528750.0,57.0,text,12
32.0,7309.0,614791.0,71.0,text,12
32.0,779.0,693811.0,85.0,text,12
32.0,590.0,796738.0,99.0,text,12
32.0,354.0,1011719.0,113.0,text,12
32.0,596.0,1092963.0,127.0,text,12
32.0,1348.0,1172400.0,140.0,text,12
32.0,1651.0,1218146.0,155.0,text,12
32.0,36881.0,36883.0,0.0,text,13
32.0,17588.0,55493.0,1.0,text,13
81.0,52926.0,109435.0,2.0,text,13
81.0,8081.0,142740.0,4.0,text,13
32.0,3495.0,155156.0,6.0,text,13
32.0,6011.0,214931.0,16.0,text,13
32.0,1597.0,217540.0,17.0,text,13
32.0,2795.0,296053.0,31.0,text,13
32.0,747.0,366657.0,45.0,text,13
32.0,880.0,440761.0,59.0,text,13
32.0,5050.0,520091.0,73.0,text,13
32.0,307.0,587701.0,87.0,text,13
32.0,580.0,656494.0,101.0,text,13
32.0,1427.0,728202.0,115.0,text,13
32.0,943.0,809977.0,129.0,text,13
32.0,2902.0,934590.0,142.0,text,13
32.0,31608.0,1013973.0,157.0,text,13
32.0,3696.0,3699.0,0.0,text,14
32.0,12539.0,17258.0,1.0,text,14
81.0,75957.0,94727.0,2.0,text,14
32.0,3524.0,151786.0,4.0,text,14
32.0,14161.0,228659.0,14.0,text,14
32.0,1663.0,231365.0,15.0,text,14
32.0,2658.0,285583.0,29.0,text,14
32.0,33659.0,370418.0,43.0,text,14
32.0,946.0,439755.0,57.0,text,14
32.0,20976.0,520058.0,71.0,text,14
32.0,1568.0,577627.0,85.0,text,14
32.0,1489.0,635534.0,99.0,text,14
32.0,20751.0,705745.0,113.0,text,14
32.0,1009.0,755224.0,127.0,text,14
32.0,1175.0,803296.0,140.0,text,14
32.0,836.0,860125.0,155.0,text,14
32.0,9483.0,9490.0,0.0,text,15
32.0,11189.0,21710.0,1.0,text,15
81.0,54700.0,77423.0,2.0,text,15
81.0,8064.0,148719.0,4.0,text,15
32.0,4718.0,163518.0,6.0,text,15
32.0,13446.0,246863.0,16.0,text,15
32.0,1409.0,249294.0,17.0,text,15
32.0,2237.0,317326.0,31.0,text,15
32.0,1165.0,370893.0,45.0,text,15
32.0,1200.0,428894.0,59.0,text,15
32.0,1573.0,495294.0,73.0,text,15
32.0,1593.0,548958.0,87.0,text,15
32.0,1491.0,626381.0,101.0,text,15
32.0,995.0,699597.0,115.0,text,15
32.0,2273.0,772365.0,129.0,text,15
32.0,1643.0,827599.0,142.0,text,15
32.0,1490.0,896829.0,157.0,text,15
32.0,3759.0,3766.0,0.0,text,16
32.0,69658.0,74437.0,1.0,text,16
81.0,44167.0,119635.0,2.0,text,16
81.0,2889.0,181294.0,4.0,text,16
32.0,2316.0,202751.0,6.0,text,16
32.0,6805.0,267035.0,16.0,text,16
32.0,996.0,269056.0,17.0,text,16
32.0,2801.0,321045.0,31.0,text,16
32.0,1142.0,365707.0,45.0,text,16
32.0,2094.0,412007.0,59.0,text,16
32.0,840.0,451363.0,73.0,text,16
32.0,858.0,489015.0,87.0,text,16
32.0,1130.0,527098.0,101.0,text,16
32.0,943.0,563240.0,115.0,text,16
32.0,562.0,598458.0,129.0,text,16
32.0,1294.0,631614.0,142.0,text,16
32.0,1237.0,672274.0,157.0,text,16
32.0,6921.0,6925.0,0.0,text,17
32.0,36395.0,44325.0,1.0,text,17
81.0,59070.0,104407.0,2.0,text,17
32.0,4875.0,160566.0,4.0,text,17
32.0,14585.0,291371.0,14.0,text,17
32.0,1730.0,294106.0,15.0,text,17
32.0,3410.0,443932.0,29.0,text,17
32.0,2248.0,562502.0,43.0,text,17
32.0,1581.0,679503.0,57.0,text,17
32.0,1805.0,794425.0,71.0,text,17
32.0,1902.0,921233.0,85.0,text,17
32.0,1802.0,1037046.0,99.0,text,17
32.0,1584.0,1159199.0,113.0,text,17
32.0,5524.0,1298053.0,127.0,text,17
32.0,10111.0,1435716.0,140.0,text,17
32.0,2913.0,1548854.0,155.0,text,17
32.0,3860.0,3873.0,0.0,text,18
32.0,17911.0,22851.0,1.0,text,18
81.0,27088.0,51004.0,2.0,text,18
81.0,26005.0,95853.0,4.0,text,18
32.0,1298.0,111040.0,6.0,text,18
32.0,4748.0,171305.0,16.0,text,18
32.0,624.0,172943.0,17.0,text,18
32.0,1153.0,246895.0,31.0,text,18
32.0,41.0,325327.0,45.0,text,18
32.0,627.0,415990.0,59.0,text,18
32.0,988.0,495205.0,73.0,text,18
32.0,696.0,582454.0,87.0,text,18
32.0,592.0,664933.0,101.0,text,18
32.0,2398.0,764379.0,115.0,text,18
32.0,622.0,869827.0,129.0,text,18
32.0,3723.0,968988.0,142.0,text,18
32.0,1759.0,1029914.0,157.0,text,18
32.0,100348.0,100359.0,0.0,text,19
32.0,11031.0,112422.0,1.0,text,19
81.0,16819.0,130253.0,2.0,text,19
81.0,15505.0,165186.0,4.0,text,19
32.0,1105.0,177682.0,6.0,text,19
32.0,4518.0,230687.0,16.0,text,19
32.0,737.0,232448.0,17.0,text,19
32.0,3228.0,276779.0,31.0,text,19
32.0,1048.0,313984.0,45.0,text,19
32.0,119.0,352122.0,59.0,text,19
32.0,2981.0,392438.0,73.0,text,19
32.0,1608.0,434569.0,87.0,text,19
32.0,17055.0,492423.0,101.0,text,19
32.0,463.0,534798.0,115.0,text,19
32.0,520.0,575602.0,129.0,text,19
32.0,1430.0,618581.0,142.0,text,19
32.0,1014.0,676014.0,157.0,text,19
32.0,2628.0,2633.0,0.0,text,20
32.0,15041.0,18680.0,1.0,text,20
81.0,108576.0,128265.0,2.0,text,20
81.0,13991.0,177567.0,4.0,text,20
81.0,16360.0,287640.0,6.0,text,20
81.0,1800.0,306095.0,8.0,text,20
81.0,1176.0,363441.0,10.0,text,20
81.0,3008.0,390080.0,12.0,text,20
32.0,8104.0,405167.0,14.0,text,20
32.0,4731.0,490024.0,24.0,text,20
32.0,741.0,491767.0,25.0,text,20
32.0,1424.0,567231.0,39.0,text,20
32.0,2377.0,639641.0,53.0,text,20
32.0,970.0,715103.0,67.0,text,20
32.0,1329.0,782816.0,81.0,text,20
32.0,1480.0,850576.0,95.0,text,20
32.0,850.0,931561.0,109.0,text,20
32.0,930.0,1014271.0,123.0,text,20
32.0,2064.0,1112848.0,137.0,text,20
32.0,1358.0,1191968.0,150.0,text,20
32.0,8493.0,1256168.0,165.0,text,20
32.0,4565.0,4569.0,0.0,text,21
32.0,16216.0,21794.0,1.0,text,21
81.0,37506.0,60308.0,2.0,text,21
32.0,5090.0,89177.0,4.0,text,21
32.0,10748.0,152473.0,14.0,text,21
32.0,1459.0,155001.0,15.0,text,21
32.0,933.0,223827.0,29.0,text,21
32.0,2104.0,292793.0,43.0,text,21
32.0,1639.0,360128.0,57.0,text,21
32.0,1752.0,446579.0,71.0,text,21
32.0,1412.0,528497.0,85.0,text,21
32.0,1342.0,611522.0,99.0,text,21
32.0,1428.0,702944.0,113.0,text,21
32.0,1116.0,794697.0,127.0,text,21
32.0,2451.0,891245.0,140.0,text,21
32.0,2176.0,953217.0,155.0,text,21
32.0,42156.0,42164.0,0.0,text,22
32.0,46174.0,89372.0,1.0,text,22
81.0,71195.0,161599.0,2.0,text,22
32.0,6293.0,250685.0,4.0,text,22
32.0,54210.0,401282.0,14.0,text,22
32.0,1787.0,404081.0,15.0,text,22
32.0,79286.0,596676.0,29.0,text,22
32.0,5542.0,680697.0,43.0,text,22
32.0,3930.0,752116.0,57.0,text,22
32.0,4063.0,828232.0,71.0,text,22
32.0,2871.0,899886.0,85.0,text,22
32.0,3139.0,983974.0,99.0,text,22
32.0,3276.0,1074266.0,113.0,text,22
32.0,2383.0,1166285.0,127.0,text,22
32.0,6016.0,1253154.0,140.0,text,22
32.0,3662.0,1337843.0,155.0,text,22
32.0,4535.0,4538.0,0.0,text,23
32.0,13403.0,18941.0,1.0,text,23
81.0,25063.0,45004.0,2.0,text,23
81.0,16252.0,86607.0,4.0,text,23
32.0,1270.0,97279.0,6.0,text,23
32.0,11970.0,176804.0,16.0,text,23
32.0,2250.0,180060.0,17.0,text,23
32.0,4706.0,249354.0,31.0,text,23
32.0,1468.0,345365.0,45.0,text,23
32.0,3310.0,425724.0,59.0,text,23
32.0,1335.0,612712.0,73.0,text,23
32.0,344.0,665062.0,87.0,text,23
32.0,1082.0,862522.0,101.0,text,23
32.0,949.0,921999.0,115.0,text,23
32.0,776.0,972684.0,129.0,text,23
32.0,627.0,1017790.0,142.0,text,23
32.0,900.0,1068595.0,157.0,text,23
32.0,3701.0,3707.0,0.0,text,24
32.0,704.0,710.0,0.0,text,24
32.0,1329.0,3081.0,1.0,text,24
81.0,5383.0,9468.0,2.0,text,24
81.0,16611.0,37096.0,4.0,text,24
32.0,1069.0,46685.0,6.0,text,24
32.0,3348.0,3350.0,0.0,text,25
32.0,27409.0,31763.0,1.0,text,25
81.0,109907.0,142675.0,2.0,text,25
81.0,16291.0,196045.0,4.0,text,25
32.0,2614.0,216376.0,6.0,text,25
32.0,15017.0,284082.0,16.0,text,25
32.0,1006.0,286092.0,17.0,text,25
32.0,2963.0,352309.0,31.0,text,25
32.0,1293.0,406111.0,45.0,text,25
32.0,1537.0,463616.0,59.0,text,25
32.0,1722.0,519146.0,73.0,text,25
32.0,1181.0,577912.0,87.0,text,25
32.0,1233.0,639745.0,101.0,text,25
32.0,974.0,714234.0,115.0,text,25
32.0,1241.0,784950.0,129.0,text,25
32.0,980.0,865762.0,142.0,text,25
32.0,1141.0,937398.0,157.0,text,25
32.0,2778.0,2781.0,0.0,text,26
32.0,32403.0,36192.0,1.0,text,26
81.0,40229.0,77424.0,2.0,text,26
32.0,3428.0,99218.0,4.0,text,26
32.0,4011.0,169718.0,14.0,text,26
32.0,1036.0,171758.0,15.0,text,26
32.0,6226.0,227138.0,29.0,text,26
32.0,11289.0,288622.0,43.0,text,26
32.0,2137.0,328418.0,57.0,text,26
32.0,1690.0,376185.0,71.0,text,26
32.0,104.0,418774.0,85.0,text,26
32.0,2336.0,479526.0,99.0,text,26
32.0,1996.0,529123.0,113.0,text,26
32.0,2036.0,599855.0,127.0,text,26
32.0,2147.0,672346.0,140.0,text,26
32.0,1378.0,748217.0,155.0,text,26
32.0,3166.0,3170.0,0.0,text,27
32.0,12478.0,16669.0,1.0,text,27
81.0,26770.0,44456.0,2.0,text,27
81.0,40295.0,123835.0,4.0,text,27
32.0,5038.0,166774.0,6.0,text,27
32.0,8478.0,247444.0,16.0,text,27
32.0,1367.0,249814.0,17.0,text,27
32.0,2240.0,322910.0,31.0,text,27
32.0,825.0,390833.0,45.0,text,27
32.0,5477.0,471537.0,59.0,text,27
32.0,1018.0,549281.0,73.0,text,27
32.0,896.0,628036.0,87.0,text,27
32.0,853.0,709139.0,101.0,text,27
32.0,886.0,794616.0,115.0,text,27
32.0,926.0,888070.0,129.0,text,27
32.0,1780.0,976658.0,142.0,text,27
32.0,5041.0,1046890.0,157.0,text,27
32.0,7483.0,7486.0,0.0,text,28
32.0,8903.0,17412.0,1.0,text,28
81.0,39651.0,58071.0,2.0,text,28
32.0,2111.0,84373.0,4.0,text,28
32.0,3570.0,160413.0,14.0,text,28
32.0,1549.0,162967.0,15.0,text,28
32.0,2776.0,206325.0,29.0,text,28
32.0,1245.0,246713.0,43.0,text,28
32.0,1004.0,285864.0,57.0,text,28
32.0,1030.0,326612.0,71.0,text,28
32.0,4254.0,368520.0,85.0,text,28
32.0,3582.0,409205.0,99.0,text,28
32.0,956.0,460169.0,113.0,text,28
32.0,751.0,495550.0,127.0,text,28
32.0,2686.0,541023.0,140.0,text,28
32.0,1103.0,590423.0,155.0,text,28
32.0,6664.0,6674.0,0.0,text,29
32.0,48536.0,48544.0,1.0,text,29
81.0,76668.0,126229.0,2.0,text,29
32.0,170415.0,170424.0,4.0,text,29
32.0,276936.0,276945.0,14.0,text,29
32.0,281180.0,281189.0,15.0,text,29
32.0,2380.0,2384.0,0.0,text,30
32.0,17806.0,21202.0,1.0,text,30
81.0,13295.0,35503.0,2.0,text,30
81.0,20039.0,75787.0,4.0,text,30
32.0,16285.0,122461.0,6.0,text,30
32.0,9018.0,184358.0,16.0,text,30
32.0,1581.0,186944.0,17.0,text,30
32.0,1245.0,245397.0,31.0,text,30
32.0,3866.0,286095.0,45.0,text,30
32.0,1308.0,327266.0,59.0,text,30
32.0,1351.0,364498.0,73.0,text,30
32.0,1740.0,405875.0,87.0,text,30
32.0,1441.0,449936.0,101.0,text,30
32.0,2646.0,521428.0,115.0,text,30
32.0,1130.0,561491.0,129.0,text,30
32.0,1278.0,595587.0,142.0,text,30
32.0,1000.0,634325.0,157.0,text,30
32.0,2891.0,2895.0,0.0,text,31
32.0,17932.0,21836.0,1.0,text,31
81.0,35057.0,57913.0,2.0,text,31
32.0,2069.0,77759.0,4.0,text,31
32.0,7072.0,130827.0,14.0,text,31
32.0,2298.0,134131.0,15.0,text,31
32.0,2005.0,198726.0,29.0,text,31
32.0,961.0,269545.0,43.0,text,31
32.0,1567.0,336356.0,57.0,text,31
32.0,913.0,406519.0,71.0,text,31
32.0,647.0,475898.0,85.0,text,31
32.0,929.0,549141.0,99.0,text,31
32.0,763.0,627015.0,113.0,text,31
32.0,1021.0,705929.0,127.0,text,31
32.0,2595.0,794794.0,140.0,text,31
32.0,1954.0,856348.0,155.0,text,31
32.0,4598.0,4614.0,0.0,text,32
32.0,2461.0,2465.0,0.0,text,32
32.0,28771.0,28775.0,0.0,text,32
32.0,2139.0,31942.0,1.0,text,32
81.0,4786.0,37751.0,2.0,text,32
81.0,6722.0,79751.0,4.0,text,32
81.0,1263.0,100623.0,6.0,text,32
32.0,60098.0,169578.0,8.0,text,32
32.0,11956.0,269358.0,18.0,text,32
32.0,2258.0,272631.0,19.0,text,32
32.0,2570.0,394002.0,33.0,text,32
32.0,4027.0,490813.0,47.0,text,32
32.0,1535.0,597677.0,61.0,text,32
32.0,4615.0,699261.0,75.0,text,32
32.0,2503.0,805381.0,89.0,text,32
32.0,1504.0,918535.0,103.0,text,32
32.0,1620.0,1025676.0,117.0,text,32
32.0,3744.0,1136385.0,131.0,text,32
32.0,3727.0,1240947.0,144.0,text,32
32.0,7292.0,1342364.0,159.0,text,32
32.0,3408.0,3413.0,0.0,text,33
32.0,13287.0,17715.0,1.0,text,33
81.0,64439.0,83168.0,2.0,text,33
81.0,2087.0,147462.0,4.0,text,33
32.0,2217.0,195348.0,6.0,text,33
32.0,10763.0,263086.0,16.0,text,33
32.0,1240.0,265329.0,17.0,text,33
32.0,1332.0,328017.0,31.0,text,33
32.0,1249.0,391375.0,45.0,text,33
32.0,767.0,450363.0,59.0,text,33
32.0,135.0,509585.0,73.0,text,33
32.0,143.0,570767.0,87.0,text,33
32.0,1524.0,642613.0,101.0,text,33
32.0,520.0,712842.0,115.0,text,33
32.0,792.0,804150.0,129.0,text,33
32.0,3941.0,880957.0,142.0,text,33
32.0,1893.0,928186.0,157.0,text,33
32.0,2703.0,2709.0,0.0,text,34
32.0,10604.0,14347.0,1.0,text,34
81.0,28332.0,43695.0,2.0,text,34
32.0,2042.0,63643.0,4.0,text,34
32.0,8946.0,127276.0,14.0,text,34
32.0,1553.0,129861.0,15.0,text,34
32.0,2596.0,181365.0,29.0,text,34
32.0,1176.0,225139.0,43.0,text,34
32.0,1133.0,269469.0,57.0,text,34
32.0,896.0,311371.0,71.0,text,34
32.0,1061.0,356216.0,85.0,text,34
32.0,958.0,399083.0,99.0,text,34
32.0,1205.0,438308.0,113.0,text,34
32.0,1079.0,474664.0,127.0,text,34
32.0,1335.0,511231.0,140.0,text,34
32.0,1320.0,553748.0,155.0,text,34
32.0,3783.0,3791.0,0.0,text,35
32.0,2313.0,7118.0,1.0,text,35
81.0,24994.0,33117.0,2.0,text,35
32.0,4850.0,155678.0,4.0,text,35
32.0,26302.0,232475.0,14.0,text,35
32.0,845.0,234347.0,15.0,text,35
32.0,886.0,299819.0,29.0,text,35
32.0,946.0,362249.0,43.0,text,35
32.0,36600.0,460922.0,57.0,text,35
32.0,729.0,531128.0,71.0,text,35
32.0,745.0,746085.0,85.0,text,35
32.0,1356.0,819524.0,99.0,text,35
32.0,1006.0,902274.0,113.0,text,35
32.0,495.0,1009826.0,127.0,text,35
32.0,329.0,1093760.0,140.0,text,35
32.0,5140.0,1144912.0,155.0,text,35
32.0,6565.0,6572.0,0.0,text,36
32.0,2945.0,2950.0,0.0,text,36
32.0,748.0,754.0,0.0,text,36
32.0,1633.0,3397.0,1.0,text,36
81.0,4470.0,8874.0,2.0,text,36
81.0,5485.0,23936.0,4.0,text,36
32.0,1058.0,32563.0,6.0,text,36
32.0,173981.0,259958.0,16.0,text,36
32.0,595.0,261574.0,17.0,text,36
32.0,1163.0,326465.0,31.0,text,36
32.0,798.0,393387.0,45.0,text,36
32.0,3376.0,464918.0,59.0,text,36
32.0,7821.0,544738.0,73.0,text,36
32.0,688.0,617680.0,87.0,text,36
32.0,804.0,697125.0,101.0,text,36
32.0,888.0,776559.0,115.0,text,36
32.0,663.0,860695.0,129.0,text,36
32.0,3043.0,946353.0,142.0,text,36
32.0,1502.0,991208.0,157.0,text,36
32.0,2836.0,2841.0,0.0,text,37
32.0,30791.0,34641.0,1.0,text,37
81.0,136066.0,171716.0,2.0,text,37
32.0,4285.0,272991.0,4.0,text,37
32.0,4902.0,353805.0,14.0,text,37
32.0,1379.0,356193.0,15.0,text,37
32.0,823.0,402268.0,29.0,text,37
32.0,673.0,444268.0,43.0,text,37
32.0,837.0,493320.0,57.0,text,37
32.0,576.0,525508.0,71.0,text,37
32.0,260.0,556594.0,85.0,text,37
32.0,573.0,588507.0,99.0,text,37
32.0,636.0,624132.0,113.0,text,37
32.0,661.0,658344.0,127.0,text,37
32.0,622.0,687545.0,140.0,text,37
32.0,1150.0,722771.0,155.0,text,37
32.0,12584.0,12588.0,0.0,text,38
32.0,28271.0,41859.0,1.0,text,38
81.0,52184.0,95062.0,2.0,text,38
81.0,13705.0,181103.0,4.0,text,38
32.0,3045.0,198415.0,6.0,text,38
32.0,12939.0,293142.0,16.0,text,38
32.0,1812.0,295954.0,17.0,text,38
32.0,2728.0,375333.0,31.0,text,38
32.0,3410.0,444554.0,45.0,text,38
32.0,6820.0,499352.0,59.0,text,38
32.0,2420.0,564674.0,73.0,text,38
32.0,1418.0,631920.0,87.0,text,38
32.0,2110.0,694599.0,101.0,text,38
32.0,948.0,748723.0,115.0,text,38
32.0,1070.0,790742.0,129.0,text,38
32.0,2430.0,827750.0,142.0,text,38
32.0,1395.0,877153.0,157.0,text,38
32.0,5381.0,5383.0,0.0,text,39
32.0,38686.0,45076.0,1.0,text,39
81.0,49644.0,95725.0,2.0,text,39
81.0,33327.0,238884.0,4.0,text,39
32.0,15264.0,287210.0,6.0,text,39
32.0,9462.0,361303.0,16.0,text,39
32.0,3536.0,365841.0,17.0,text,39
32.0,4022.0,456337.0,31.0,text,39
32.0,5711.0,575016.0,45.0,text,39
32.0,4712.0,700787.0,59.0,text,39
32.0,179.0,839135.0,73.0,text,39
32.0,6845.0,971979.0,87.0,text,39
32.0,5151.0,1074305.0,101.0,text,39
32.0,4976.0,1162639.0,115.0,text,39
32.0,1741.0,1263468.0,129.0,text,39
32.0,2436.0,1355281.0,142.0,text,39
32.0,2348.0,1411308.0,157.0,text,39
32.0,5224.0,5229.0,0.0,text,40
32.0,30189.0,36451.0,1.0,text,40
81.0,83211.0,120678.0,2.0,text,40
81.0,25407.0,178001.0,4.0,text,40
32.0,4214.0,212699.0,6.0,text,40
32.0,15386.0,289660.0,16.0,text,40
32.0,1557.0,292224.0,17.0,text,40
32.0,1103.0,348745.0,31.0,text,40
32.0,3421.0,401642.0,45.0,text,40
32.0,1541.0,446016.0,59.0,text,40
32.0,925.0,495333.0,73.0,text,40
32.0,1161.0,539437.0,87.0,text,40
32.0,1312.0,588522.0,101.0,text,40
32.0,1104.0,633314.0,115.0,text,40
32.0,791.0,676435.0,129.0,text,40
32.0,1593.0,721464.0,142.0,text,40
32.0,1290.0,775777.0,157.0,text,40
32.0,7432.0,7435.0,0.0,text,41
32.0,29596.0,38049.0,1.0,text,41
81.0,75030.0,114097.0,2.0,text,41
32.0,8314.0,193328.0,4.0,text,41
32.0,17540.0,278833.0,14.0,text,41
32.0,2906.0,282752.0,15.0,text,41
32.0,4383.0,351160.0,29.0,text,41
32.0,2424.0,407976.0,43.0,text,41
32.0,1620.0,464688.0,57.0,text,41
32.0,1567.0,518320.0,71.0,text,41
32.0,1876.0,579600.0,85.0,text,41
32.0,1364.0,641640.0,99.0,text,41
32.0,2307.0,698648.0,113.0,text,41
32.0,999.0,749888.0,127.0,text,41
32.0,1920.0,808208.0,140.0,text,41
32.0,2747.0,874712.0,155.0,text,41
32.0,2808.0,2820.0,0.0,text,42
32.0,15206.0,19040.0,1.0,text,42
81.0,39898.0,59981.0,2.0,text,42
81.0,15676.0,92342.0,4.0,text,42
32.0,1647.0,109084.0,6.0,text,42
32.0,11068.0,171198.0,16.0,text,42
32.0,2217.0,174427.0,17.0,text,42
32.0,2134.0,228763.0,31.0,text,42
32.0,1349.0,265758.0,45.0,text,42
32.0,813.0,300976.0,59.0,text,42
32.0,1109.0,334919.0,73.0,text,42
32.0,941.0,367415.0,87.0,text,42
32.0,1147.0,400854.0,101.0,text,42
32.0,336.0,432414.0,115.0,text,42
32.0,1516.0,468877.0,129.0,text,42
32.0,2762.0,500453.0,142.0,text,42
32.0,320.0,533707.0,157.0,text,42
32.0,10075.0,10098.0,0.0,text,43
32.0,11518.0,22673.0,1.0,text,43
81.0,51642.0,75331.0,2.0,text,43
81.0,6571.0,102332.0,4.0,text,43
32.0,3745.0,117653.0,6.0,text,43
32.0,17760.0,207553.0,16.0,text,43
32.0,1712.0,210303.0,17.0,text,43
32.0,1779.0,281169.0,31.0,text,43
32.0,1404.0,340054.0,45.0,text,43
32.0,1141.0,401029.0,59.0,text,43
32.0,1206.0,464419.0,73.0,text,43
32.0,1272.0,560935.0,87.0,text,43
32.0,982.0,649287.0,101.0,text,43
32.0,1719.0,745405.0,115.0,text,43
32.0,2451.0,846264.0,129.0,text,43
32.0,1026.0,900745.0,142.0,text,43
32.0,2543.0,1000612.0,157.0,text,43
32.0,11042.0,11055.0,0.0,text,44
32.0,49539.0,61630.0,1.0,text,44
81.0,169983.0,232674.0,2.0,text,44
81.0,14070.0,277426.0,4.0,text,44
32.0,4626.0,303344.0,6.0,text,44
32.0,11638.0,388445.0,16.0,text,44
32.0,1580.0,391032.0,17.0,text,44
32.0,2505.0,483301.0,31.0,text,44
32.0,2424.0,563493.0,45.0,text,44
32.0,1905.0,656440.0,59.0,text,44
32.0,1688.0,746055.0,73.0,text,44
32.0,2109.0,846628.0,87.0,text,44
32.0,2412.0,958797.0,101.0,text,44
32.0,1044.0,1057980.0,115.0,text,44
32.0,2008.0,1152675.0,129.0,text,44
32.0,8854.0,1257568.0,142.0,text,44
32.0,2315.0,1341557.0,157.0,text,44
32.0,709819.0,709824.0,0.0,text,45
32.0,14412.0,725250.0,1.0,text,45
81.0,25107.0,751362.0,2.0,text,45
32.0,3296.0,778560.0,4.0,text,45
32.0,11411.0,869254.0,14.0,text,45
32.0,1416.0,871676.0,15.0,text,45
32.0,2724.0,938708.0,29.0,text,45
32.0,1146.0,984425.0,43.0,text,45
32.0,2292.0,1026289.0,57.0,text,45
32.0,1492.0,1064623.0,71.0,text,45
32.0,987.0,1114581.0,85.0,text,45
32.0,1340.0,1155188.0,99.0,text,45
32.0,1267.0,1203266.0,113.0,text,45
32.0,1924.0,1240161.0,127.0,text,45
32.0,1101.0,1278671.0,140.0,text,45
32.0,1924.0,1328823.0,155.0,text,45
32.0,2671.0,2678.0,0.0,text,46
32.0,17703.0,17710.0,1.0,text,46
81.0,21697.0,40414.0,2.0,text,46
81.0,5645.0,83977.0,4.0,text,46
32.0,91525.0,91532.0,6.0,text,46
32.0,118097.0,118104.0,17.0,text,46
32.0,142769.0,142776.0,31.0,text,46
32.0,167037.0,167044.0,45.0,text,46
32.0,184547.0,184553.0,59.0,text,46
32.0,191359.0,191365.0,73.0,text,46
32.0,196896.0,196902.0,87.0,text,46
32.0,200921.0,200927.0,101.0,text,46
32.0,205509.0,205516.0,115.0,text,46
32.0,214475.0,214481.0,129.0,text,46
32.0,215044.0,215051.0,129.0,text,46
32.0,218117.0,218123.0,142.0,text,46
32.0,13460.0,13466.0,0.0,text,47
32.0,67002.0,81501.0,1.0,text,47
81.0,132208.0,214719.0,2.0,text,47
32.0,16100.0,318124.0,4.0,text,47
32.0,46106.0,436120.0,14.0,text,47
32.0,2279.0,439412.0,15.0,text,47
32.0,11914.0,514230.0,29.0,text,47
32.0,2904.0,564255.0,43.0,text,47
32.0,4705.0,624468.0,57.0,text,47
32.0,2001.0,683565.0,71.0,text,47
32.0,1594.0,736666.0,85.0,text,47
32.0,1578.0,789894.0,99.0,text,47
32.0,1303.0,844229.0,113.0,text,47
32.0,2317.0,906547.0,127.0,text,47
32.0,1555.0,964935.0,140.0,text,47
32.0,1424.0,1032807.0,155.0,text,47
32.0,10399.0,10423.0,0.0,text,48
32.0,38086.0,49524.0,1.0,text,48
81.0,67799.0,118330.0,2.0,text,48
81.0,112024.0,313364.0,4.0,text,48
32.0,3545.0,365255.0,6.0,text,48
32.0,73.0,429975.0,16.0,text,48
32.0,1599.0,432579.0,17.0,text,48
32.0,1536.0,523723.0,31.0,text,48
32.0,0.0,615230.0,45.0,text,48
32.0,16002.0,735377.0,59.0,text,48
32.0,36.0,837555.0,73.0,text,48
32.0,1173.0,930376.0,87.0,text,48
32.0,1072.0,1020451.0,101.0,text,48
32.0,815.0,1107612.0,115.0,text,48
32.0,2059.0,1199981.0,129.0,text,48
32.0,11728.0,1292623.0,142.0,text,48
32.0,3567.0,1347120.0,157.0,text,48
32.0,3994.0,4000.0,0.0,text,49
32.0,58123.0,63144.0,1.0,text,49
81.0,49393.0,113553.0,2.0,text,49
81.0,26814.0,190711.0,4.0,text,49
81.0,7535.0,207845.0,6.0,text,49
32.0,2475.0,215377.0,8.0,text,49
32.0,7402.0,275578.0,18.0,text,49
32.0,890.0,277480.0,19.0,text,49
32.0,1656.0,346961.0,33.0,text,49
32.0,998.0,414998.0,47.0,text,49
32.0,857.0,487996.0,61.0,text,49
32.0,1135.0,558948.0,75.0,text,49
32.0,38682.0,677478.0,89.0,text,49
32.0,1004.0,800147.0,103.0,text,49
32.0,1029.0,876873.0,117.0,text,49
32.0,579.0,958942.0,131.0,text,49
32.0,2901.0,1041601.0,144.0,text,49
32.0,843.0,1098203.0,159.0,text,49
32.0,5288.0,5296.0,0.0,text,50
32.0,3695.0,10009.0,1.0,text,50
81.0,6900.0,17927.0,2.0,text,50
81.0,11514.0,48160.0,4.0,text,50
32.0,3714.0,64472.0,6.0,text,50
32.0,112.0,167200.0,16.0,text,50
32.0,1749.0,169958.0,17.0,text,50
32.0,1126.0,210751.0,31.0,text,50
32.0,847.0,253327.0,45.0,text,50
32.0,1270.0,308414.0,59.0,text,50
32.0,735.0,362790.0,73.0,text,50
32.0,974.0,408182.0,87.0,text,50
32.0,889.0,457158.0,101.0,text,50
32.0,770.0,498550.0,115.0,text,50
32.0,599.0,541127.0,129.0,text,50
32.0,1425.0,583295.0,142.0,text,50
32.0,774.0,636422.0,157.0,text,50
32.0,3661.0,3670.0,0.0,text,51
32.0,31857.0,36577.0,1.0,text,51
81.0,65237.0,102858.0,2.0,text,51
32.0,3741.0,137718.0,4.0,text,51
32.0,16704.0,252622.0,14.0,text,51
32.0,3297.0,256941.0,15.0,text,51
32.0,3438.0,338941.0,29.0,text,51
32.0,2859.0,402846.0,43.0,text,51
32.0,4677.0,472115.0,57.0,text,51
32.0,4259.0,543175.0,71.0,text,51
32.0,8060.0,626301.0,85.0,text,51
32.0,2327.0,690253.0,99.0,text,51
32.0,2849.0,748845.0,113.0,text,51
32.0,3968.0,809709.0,127.0,text,51
32.0,2663.0,866829.0,140.0,text,51
32.0,3353.0,928933.0,155.0,text,51
32.0,7171.0,7176.0,0.0,text,52
32.0,8903.0,17094.0,1.0,text,52
81.0,31297.0,49435.0,2.0,text,52
32.0,3563.0,72359.0,4.0,text,52
32.0,6037.0,127302.0,14.0,text,52
32.0,1137.0,129450.0,15.0,text,52
32.0,1426.0,188636.0,29.0,text,52
32.0,758.0,250537.0,43.0,text,52
32.0,1004.0,315368.0,57.0,text,52
32.0,936.0,380670.0,71.0,text,52
32.0,445.0,448212.0,85.0,text,52
32.0,574.0,522314.0,99.0,text,52
32.0,597.0,601541.0,113.0,text,52
32.0,927.0,682358.0,127.0,text,52
32.0,795.0,757936.0,140.0,text,52
32.0,2147.0,795031.0,155.0,text,52
32.0,3055.0,3060.0,0.0,text,53
32.0,19692.0,23763.0,1.0,text,53
81.0,56624.0,81395.0,2.0,text,53
81.0,21501.0,162275.0,4.0,text,53
32.0,3507.0,237106.0,6.0,text,53
32.0,16089.0,319363.0,16.0,text,53
32.0,2191.0,322562.0,17.0,text,53
32.0,4652.0,397267.0,31.0,text,53
32.0,2305.0,452259.0,45.0,text,53
32.0,3378.0,504999.0,59.0,text,53
32.0,3037.0,560659.0,73.0,text,53
32.0,4733.0,624195.0,87.0,text,53
32.0,6046.0,679571.0,101.0,text,53
32.0,2604.0,730451.0,115.0,text,53
32.0,3397.0,785379.0,129.0,text,53
32.0,7710.0,837923.0,142.0,text,53
32.0,2958.0,896931.0,157.0,text,53
32.0,1817.0,1821.0,0.0,text,54
32.0,34405.0,37233.0,1.0,text,54
81.0,32065.0,70303.0,2.0,text,54
32.0,2933.0,94835.0,4.0,text,54
32.0,4981.0,150041.0,14.0,text,54
32.0,737.0,151782.0,15.0,text,54
32.0,2173.0,223726.0,29.0,text,54
32.0,1226.0,312515.0,43.0,text,54
32.0,1101.0,387235.0,57.0,text,54
32.0,1252.0,466887.0,71.0,text,54
32.0,940.0,556566.0,85.0,text,54
32.0,1275.0,673500.0,99.0,text,54
32.0,774.0,766122.0,113.0,text,54
32.0,813.0,873689.0,127.0,text,54
32.0,4266.0,986279.0,140.0,text,54
32.0,1824.0,1056129.0,155.0,text,54
32.0,4076.0,4078.0,0.0,text,55
32.0,21408.0,26491.0,1.0,text,55
81.0,33545.0,61054.0,2.0,text,55
81.0,18105.0,102053.0,4.0,text,55
32.0,2041.0,145585.0,6.0,text,55
32.0,56819.0,277162.0,16.0,text,55
32.0,1529.0,279697.0,17.0,text,55
32.0,4365.0,340433.0,31.0,text,55
32.0,2122.0,391870.0,45.0,text,55
32.0,1581.0,448775.0,59.0,text,55
32.0,1214.0,520945.0,73.0,text,55
32.0,1203.0,573740.0,87.0,text,55
32.0,1082.0,623354.0,101.0,text,55
32.0,1109.0,669085.0,115.0,text,55
32.0,1477.0,718593.0,129.0,text,55
32.0,1653.0,764452.0,142.0,text,55
32.0,3199.0,829023.0,157.0,text,55
32.0,5107.0,5128.0,0.0,text,56
32.0,21500.0,27676.0,1.0,text,56
81.0,66366.0,95070.0,2.0,text,56
32.0,3593.0,146778.0,4.0,text,56
32.0,2114.0,2118.0,0.0,text,57
32.0,4492.0,7617.0,1.0,text,57
81.0,35242.0,43878.0,2.0,text,57
81.0,16630.0,80613.0,4.0,text,57
32.0,2408.0,94746.0,6.0,text,57
32.0,6426.0,179460.0,16.0,text,57
32.0,1684.0,182155.0,17.0,text,57
32.0,4661.0,252472.0,31.0,text,57
32.0,4049.0,322883.0,45.0,text,57
32.0,2065.0,383906.0,59.0,text,57
32.0,1559.0,450583.0,73.0,text,57
32.0,1765.0,509139.0,87.0,text,57
32.0,1490.0,591279.0,101.0,text,57
32.0,315.0,663279.0,115.0,text,57
32.0,1622.0,738978.0,129.0,text,57
32.0,1402.0,827690.0,142.0,text,57
32.0,1665.0,899865.0,157.0,text,57
32.0,1579.0,1596.0,0.0,text,58
32.0,1413.0,4040.0,1.0,text,58
81.0,9542.0,14592.0,2.0,text,58
81.0,9774.0,33961.0,4.0,text,58
81.0,6664.0,58336.0,6.0,text,58
81.0,649.0,68482.0,8.0,text,58
32.0,2455.0,76376.0,10.0,text,58
32.0,1659.0,123289.0,20.0,text,58
32.0,1047.0,125351.0,21.0,text,58
32.0,677.0,162008.0,35.0,text,58
32.0,593.0,195192.0,49.0,text,58
32.0,563.0,229817.0,63.0,text,58
32.0,525.0,261984.0,77.0,text,58
32.0,483.0,293800.0,91.0,text,58
32.0,448.0,322368.0,105.0,text,58
32.0,225.0,350624.0,119.0,text,58
32.0,604.0,381329.0,133.0,text,58
32.0,587.0,408744.0,146.0,text,58
32.0,665.0,442912.0,161.0,text,58
32.0,6720.0,6725.0,0.0,text,59
32.0,32274.0,40010.0,1.0,text,59
81.0,22938.0,63953.0,2.0,text,59
32.0,6248.0,100594.0,4.0,text,59
32.0,36250.0,258868.0,14.0,text,59
32.0,2565.0,262441.0,15.0,text,59
32.0,2724.0,344361.0,29.0,text,59
32.0,1038.0,422522.0,43.0,text,59
32.0,11446.0,533563.0,57.0,text,59
32.0,2502.0,627776.0,71.0,text,59
32.0,1487.0,696729.0,85.0,text,59
32.0,124973.0,1184746.0,99.0,text,59
32.0,11768.0,1297211.0,113.0,text,59
32.0,1846.0,1388257.0,127.0,text,59
32.0,1223.0,1469458.0,140.0,text,59
32.0,1111.0,1558305.0,155.0,text,59
32.0,3118.0,3135.0,0.0,text,60
32.0,3760.0,7936.0,1.0,text,60
81.0,33003.0,42051.0,2.0,text,60
32.0,1785.0,56377.0,4.0,text,60
32.0,4753.0,124087.0,14.0,text,60
32.0,2005.0,127185.0,15.0,text,60
32.0,37647.0,237743.0,29.0,text,60
32.0,1722.0,305962.0,43.0,text,60
32.0,1458.0,374759.0,57.0,text,60
32.0,3878.0,449953.0,71.0,text,60
32.0,794.0,527804.0,85.0,text,60
32.0,13253.0,619807.0,99.0,text,60
32.0,1357.0,703247.0,113.0,text,60
32.0,1164.0,787532.0,127.0,text,60
32.0,3825.0,901497.0,140.0,text,60
32.0,5107.0,985890.0,155.0,text,60
32.0,2331.0,2335.0,0.0,text,61
32.0,12090.0,15429.0,1.0,text,61
81.0,22518.0,38950.0,2.0,text,61
81.0,8270.0,72545.0,4.0,text,61
32.0,46755.0,131154.0,6.0,text,61
32.0,5392.0,198101.0,16.0,text,61
32.0,1267.0,200372.0,17.0,text,61
32.0,252.0,269094.0,31.0,text,61
32.0,324.0,343432.0,45.0,text,61
32.0,1121.0,413565.0,59.0,text,61
32.0,33.0,488647.0,73.0,text,61
32.0,1743.0,568641.0,87.0,text,61
32.0,730.0,645675.0,101.0,text,61
32.0,1704.0,718840.0,115.0,text,61
32.0,762.0,796633.0,129.0,text,61
32.0,1379.0,872741.0,142.0,text,61
32.0,1288.0,932526.0,157.0,text,61
32.0,3535.0,3539.0,0.0,text,62
32.0,12553.0,17101.0,1.0,text,62
81.0,42469.0,60578.0,2.0,text,62
81.0,19830.0,104633.0,4.0,text,62
32.0,2680.0,126541.0,6.0,text,62
32.0,10375.0,238840.0,16.0,text,62
32.0,1485.0,241328.0,17.0,text,62
32.0,1233.0,326428.0,31.0,text,62
32.0,6766.0,412502.0,45.0,text,62
32.0,1821.0,505720.0,59.0,text,62
32.0,1615.0,609510.0,73.0,text,62
32.0,2366.0,718145.0,87.0,text,62
32.0,1440.0,824827.0,101.0,text,62
32.0,1754.0,927288.0,115.0,text,62
32.0,1795.0,1026586.0,129.0,text,62
32.0,1486.0,1133317.0,142.0,text,62
32.0,4142.0,1219672.0,157.0,text,62
32.0,14051.0,14055.0,0.0,text,63
32.0,11491.0,26553.0,1.0,text,63
81.0,38314.0,65876.0,2.0,text,63
81.0,29528.0,119367.0,4.0,text,63
32.0,7598.0,138214.0,6.0,text,63
32.0,11999.0,210909.0,16.0,text,63
32.0,897.0,212841.0,17.0,text,63
32.0,943.0,257973.0,31.0,text,63
32.0,4765.0,308900.0,45.0,text,63
32.0,1725.0,370438.0,59.0,text,63
32.0,2742.0,432609.0,73.0,text,63
32.0,2167.0,483784.0,87.0,text,63
32.0,1994.0,535411.0,101.0,text,63
32.0,5521.0,590775.0,115.0,text,63
32.0,1647.0,639231.0,129.0,text,63
32.0,1691.0,689856.0,142.0,text,63
32.0,1181.0,750575.0,157.0,text,63
32.0,67819.0,67827.0,0.0,text,64
32.0,20685.0,89529.0,1.0,text,64
81.0,48311.0,138852.0,2.0,text,64
81.0,22376.0,190929.0,4.0,text,64
32.0,14468.0,216725.0,6.0,text,64
32.0,9783.0,298643.0,16.0,text,64
32.0,1392.0,301044.0,17.0,text,64
32.0,4414.0,4418.0,0.0,text,65
32.0,20456.0,25878.0,1.0,text,65
81.0,35303.0,62197.0,2.0,text,65
81.0,3782.0,90977.0,4.0,text,65
81.0,10059.0,111297.0,6.0,text,65
32.0,3535.0,124374.0,8.0,text,65
32.0,8911.0,185688.0,18.0,text,65
32.0,1208.0,187904.0,19.0,text,65
32.0,5060.0,264386.0,33.0,text,65
32.0,3474.0,328834.0,47.0,text,65
32.0,954.0,396274.0,61.0,text,65
32.0,2348.0,462224.0,75.0,text,65
32.0,402.0,527643.0,89.0,text,65
32.0,298.0,601003.0,103.0,text,65
32.0,702.0,675036.0,117.0,text,65
32.0,955.0,752176.0,131.0,text,65
32.0,683.0,828314.0,144.0,text,65
32.0,905.0,874027.0,159.0,text,65
32.0,6312.0,6317.0,0.0,text,66
32.0,5865.0,13187.0,1.0,text,66
81.0,49693.0,63890.0,2.0,text,66
32.0,2185.0,114032.0,4.0,text,66
32.0,448.0,169788.0,14.0,text,66
32.0,727.0,171522.0,15.0,text,66
32.0,265.0,219946.0,29.0,text,66
32.0,3080.0,262499.0,43.0,text,66
32.0,1500.0,302155.0,57.0,text,66
32.0,1620.0,339614.0,71.0,text,66
32.0,746.0,374361.0,85.0,text,66
32.0,265.0,408581.0,99.0,text,66
32.0,5047.0,451459.0,113.0,text,66
32.0,1586.0,486872.0,127.0,text,66
32.0,1277.0,525969.0,140.0,text,66
32.0,1944.0,564963.0,155.0,text,66
32.0,35935.0,35987.0,0.0,text,67
32.0,4388.0,4408.0,0.0,text,67
32.0,2164.0,2195.0,0.0,text,67
32.0,1368.0,4591.0,1.0,text,67
81.0,4783.0,10393.0,2.0,text,67
81.0,36767.0,72432.0,4.0,text,67
32.0,6029.0,100272.0,6.0,text,67
32.0,17785.0,189377.0,16.0,text,67
32.0,2032.0,192417.0,17.0,text,67
32.0,5214.0,281415.0,31.0,text,67
32.0,1903.0,358507.0,45.0,text,67
32.0,2192.0,440644.0,59.0,text,67
32.0,2382.0,529013.0,73.0,text,67
32.0,7139.0,628800.0,87.0,text,67
32.0,3923.0,731922.0,101.0,text,67
32.0,3063.0,836302.0,115.0,text,67
32.0,19344.0,1005251.0,129.0,text,67
32.0,2812.0,1107060.0,142.0,text,67
32.0,4621.0,1191643.0,157.0,text,67
32.0,36844.0,36850.0,0.0,text,68
32.0,18987.0,56868.0,1.0,text,68
81.0,316689.0,374573.0,2.0,text,68
32.0,1906.0,400820.0,4.0,text,68
32.0,21272.0,489611.0,14.0,text,68
32.0,1478.0,492099.0,15.0,text,68
32.0,6135.0,565075.0,29.0,text,68
32.0,2051.0,619773.0,43.0,text,68
32.0,1747.0,680779.0,57.0,text,68
32.0,282.0,730787.0,71.0,text,68
32.0,2105.0,801795.0,85.0,text,68
32.0,2346.0,868075.0,99.0,text,68
32.0,1840.0,938570.0,113.0,text,68
32.0,2123.0,1011346.0,127.0,text,68
32.0,1929.0,1093803.0,140.0,text,68
32.0,2114.0,1157578.0,155.0,text,68
32.0,1756.0,1763.0,0.0,text,69
32.0,8960.0,11738.0,1.0,text,69
81.0,33189.0,45941.0,2.0,text,69
32.0,5411.0,76845.0,4.0,text,69
32.0,2708.0,2712.0,0.0,text,70
32.0,45703.0,49424.0,1.0,text,70
81.0,33416.0,83853.0,2.0,text,70
81.0,23334.0,133457.0,4.0,text,70
32.0,3792.0,150110.0,6.0,text,70
32.0,7549.0,247793.0,16.0,text,70
32.0,1723.0,250520.0,17.0,text,70
32.0,2009.0,302612.0,31.0,text,70
32.0,1124.0,344017.0,45.0,text,70
32.0,800.0,390317.0,59.0,text,70
32.0,2074.0,434465.0,73.0,text,70
32.0,9555.0,490726.0,87.0,text,70
32.0,614.0,527623.0,101.0,text,70
32.0,793.0,589407.0,115.0,text,70
32.0,1027.0,640009.0,129.0,text,70
32.0,856.0,679618.0,142.0,text,70
32.0,1105.0,735841.0,157.0,text,70
32.0,9707.0,9712.0,0.0,text,71
32.0,63321.0,74053.0,1.0,text,71
81.0,46048.0,121109.0,2.0,text,71
81.0,18950.0,178132.0,4.0,text,71
32.0,5126.0,200147.0,6.0,text,71
32.0,15686.0,299146.0,16.0,text,71
32.0,2211.0,302362.0,17.0,text,71
32.0,5687.0,391803.0,31.0,text,71
32.0,6087.0,469121.0,45.0,text,71
32.0,2957.0,546329.0,59.0,text,71
32.0,2796.0,615584.0,73.0,text,71
32.0,3149.0,687494.0,87.0,text,71
32.0,4317.0,768478.0,101.0,text,71
32.0,3646.0,843213.0,115.0,text,71
32.0,4053.0,914038.0,129.0,text,71
32.0,3850.0,986860.0,142.0,text,71
32.0,1862.0,1075428.0,157.0,text,71
32.0,5381.0,5384.0,0.0,text,72
32.0,24655.0,31047.0,1.0,text,72
81.0,40482.0,72534.0,2.0,text,72
81.0,15889.0,124005.0,4.0,text,72
32.0,38645.0,176348.0,6.0,text,72
32.0,19891.0,304221.0,16.0,text,72
32.0,1612.0,306836.0,17.0,text,72
32.0,5633.0,377572.0,31.0,text,72
32.0,3234.0,435387.0,45.0,text,72
32.0,2401.0,496634.0,59.0,text,72
32.0,2097.0,560745.0,73.0,text,72
32.0,2657.0,610417.0,87.0,text,72
32.0,2090.0,656304.0,101.0,text,72
32.0,3729.0,711880.0,115.0,text,72
32.0,3312.0,789246.0,129.0,text,72
32.0,3184.0,875037.0,142.0,text,72
32.0,3156.0,953501.0,157.0,text,72
32.0,4634.0,4643.0,0.0,text,73
32.0,15840.0,21517.0,1.0,text,73
81.0,86325.0,108856.0,2.0,text,73
32.0,5444.0,154847.0,4.0,text,73
32.0,9954.0,230205.0,14.0,text,73
32.0,1403.0,232629.0,15.0,text,73
32.0,1585.0,306158.0,29.0,text,73
32.0,943.0,381230.0,43.0,text,73
32.0,1084.0,460350.0,57.0,text,73
32.0,701.0,535012.0,71.0,text,73
32.0,1285.0,617887.0,85.0,text,73
32.0,1622.0,710054.0,99.0,text,73
32.0,1367.0,801174.0,113.0,text,73
32.0,1383.0,891222.0,127.0,text,73
32.0,4044.0,1017395.0,140.0,text,73
32.0,1689.0,1114736.0,155.0,text,73
32.0,2823.0,2829.0,0.0,text,74
32.0,26339.0,30177.0,1.0,text,74
81.0,30678.0,61865.0,2.0,text,74
81.0,38973.0,118417.0,4.0,text,74
81.0,135200.0,273337.0,6.0,text,74
81.0,5451.0,301612.0,8.0,text,74
81.0,1597.0,310827.0,10.0,text,74
81.0,1064.0,322531.0,12.0,text,74
32.0,9582.0,337947.0,14.0,text,74
32.0,12479.0,405485.0,24.0,text,74
32.0,1407.0,407899.0,25.0,text,74
32.0,4532.0,486340.0,39.0,text,74
32.0,8044.0,570745.0,53.0,text,74
32.0,1230.0,642271.0,67.0,text,74
32.0,1051.0,724843.0,81.0,text,74
32.0,902.0,800459.0,95.0,text,74
32.0,1745.0,884241.0,109.0,text,74
32.0,778.0,978432.0,123.0,text,74
32.0,659.0,1084345.0,137.0,text,74
32.0,1549.0,1183476.0,150.0,text,74
32.0,2316.0,1267436.0,165.0,text,74
32.0,7544.0,7554.0,0.0,text,75
32.0,4421.0,4427.0,0.0,text,75
32.0,13350.0,18800.0,1.0,text,75
81.0,19066.0,38875.0,2.0,text,75
81.0,5561.0,65825.0,4.0,text,75
81.0,7721.0,83398.0,6.0,text,75
81.0,2634.0,97893.0,8.0,text,75
32.0,1567.0,106959.0,10.0,text,75
32.0,5065.0,165499.0,20.0,text,75
32.0,1122.0,167634.0,21.0,text,75
32.0,2820.0,222578.0,35.0,text,75
32.0,1326.0,266616.0,49.0,text,75
32.0,1269.0,308072.0,63.0,text,75
32.0,1138.0,348408.0,77.0,text,75
32.0,1606.0,394179.0,91.0,text,75
32.0,1054.0,436964.0,105.0,text,75
32.0,1319.0,488878.0,119.0,text,75
32.0,1048.0,546765.0,133.0,text,75
32.0,1814.0,582684.0,146.0,text,75
32.0,1831.0,624747.0,161.0,text,75
32.0,3695.0,3704.0,0.0,text,76
32.0,21083.0,25838.0,1.0,text,76
81.0,32719.0,59594.0,2.0,text,76
32.0,4397.0,110661.0,4.0,text,76
32.0,377502.0,552515.0,14.0,text,76
32.0,2974.0,556528.0,15.0,text,76
32.0,3148.0,633975.0,29.0,text,76
32.0,2010.0,728180.0,43.0,text,76
32.0,2226.0,784059.0,57.0,text,76
32.0,12573.0,860692.0,71.0,text,76
32.0,1954.0,921562.0,85.0,text,76
32.0,2082.0,978441.0,99.0,text,76
32.0,5048.0,1037271.0,113.0,text,76
32.0,3946.0,1090272.0,127.0,text,76
32.0,2556.0,1127532.0,140.0,text,76
32.0,1502.0,1170990.0,155.0,text,76
32.0,2817.0,2821.0,0.0,text,77
32.0,10400.0,14225.0,1.0,text,77
81.0,39017.0,54250.0,2.0,text,77
81.0,24563.0,120019.0,4.0,text,77
32.0,20032.0,152865.0,6.0,text,77
32.0,1740.0,237089.0,16.0,text,77
32.0,1711.0,239809.0,17.0,text,77
32.0,3556.0,307115.0,31.0,text,77
32.0,1244.0,357732.0,45.0,text,77
32.0,1756.0,405872.0,59.0,text,77
32.0,1395.0,456267.0,73.0,text,77
32.0,1185.0,511646.0,87.0,text,77
32.0,876.0,560534.0,101.0,text,77
32.0,1365.0,624071.0,115.0,text,77
32.0,864.0,682173.0,129.0,text,77
32.0,1509.0,732705.0,142.0,text,77
32.0,1156.0,807748.0,157.0,text,77
32.0,1676.0,1692.0,0.0,text,78
32.0,13559.0,16268.0,1.0,text,78
81.0,49201.0,66487.0,2.0,text,78
81.0,11923.0,159030.0,4.0,text,78
81.0,15155.0,199866.0,6.0,text,78
32.0,1321.0,215806.0,8.0,text,78
32.0,4761.0,288933.0,18.0,text,78
32.0,1098.0,291051.0,19.0,text,78
32.0,1069.0,378356.0,33.0,text,78
32.0,82.0,440570.0,47.0,text,78
32.0,3612.0,551797.0,61.0,text,78
32.0,923.0,647342.0,75.0,text,78
32.0,736.0,723330.0,89.0,text,78
32.0,1478.0,796828.0,103.0,text,78
32.0,74.0,885414.0,117.0,text,78
32.0,1128.0,953118.0,131.0,text,78
32.0,1471.0,1019513.0,144.0,text,78
32.0,3620.0,1047413.0,159.0,text,78
32.0,50964.0,50978.0,0.0,text,79
32.0,31727.0,83735.0,1.0,text,79
81.0,70255.0,155016.0,2.0,text,79
32.0,4859.0,251325.0,4.0,text,79
32.0,295787.0,638517.0,14.0,text,79
32.0,5281.0,644816.0,15.0,text,79
32.0,3487.0,713223.0,29.0,text,79
32.0,82316.0,852247.0,43.0,text,79
32.0,1859.0,907473.0,57.0,text,79
32.0,1776.0,954363.0,71.0,text,79
32.0,1412.0,1008429.0,85.0,text,79
32.0,1106.0,1075684.0,99.0,text,79
32.0,1548.0,1129409.0,113.0,text,79
32.0,4101.0,1200348.0,127.0,text,79
32.0,2149.0,1258969.0,140.0,text,79
32.0,3097.0,1322979.0,155.0,text,79
32.0,4684.0,4687.0,0.0,text,80
32.0,51820.0,57517.0,1.0,text,80
81.0,53081.0,111611.0,2.0,text,80
32.0,3477.0,218527.0,4.0,text,80
32.0,17537.0,306087.0,14.0,text,80
32.0,1425.0,308518.0,15.0,text,80
32.0,5561.0,410800.0,29.0,text,80
32.0,1801.0,504654.0,43.0,text,80
32.0,1410.0,592124.0,57.0,text,80
32.0,95184.0,773617.0,71.0,text,80
32.0,19582.0,876704.0,85.0,text,80
32.0,2056.0,963121.0,99.0,text,80
32.0,1764.0,1052967.0,113.0,text,80
32.0,2077.0,1146845.0,127.0,text,80
32.0,2107.0,1244154.0,140.0,text,80
32.0,5917.0,1302465.0,155.0,text,80
32.0,2359.0,2362.0,0.0,text,81
32.0,12369.0,15737.0,1.0,text,81
81.0,54612.0,71361.0,2.0,text,81
81.0,1940.0,94737.0,4.0,text,81
32.0,2006.0,124136.0,6.0,text,81
32.0,62999.0,246553.0,16.0,text,81
32.0,1563.0,249118.0,17.0,text,81
32.0,2553.0,332407.0,31.0,text,81
32.0,915.0,402193.0,45.0,text,81
32.0,1048.0,472150.0,59.0,text,81
32.0,1633.0,551278.0,73.0,text,81
32.0,926.0,633620.0,87.0,text,81
32.0,1094.0,718348.0,101.0,text,81
32.0,4645.0,820076.0,115.0,text,81
32.0,709.0,908085.0,129.0,text,81
32.0,5877.0,997500.0,142.0,text,81
32.0,1555.0,1052435.0,157.0,text,81
32.0,3182.0,3186.0,0.0,text,82
32.0,7916.0,12111.0,1.0,text,82
81.0,26432.0,39552.0,2.0,text,82
81.0,9826.0,66201.0,4.0,text,82
32.0,1856.0,80862.0,6.0,text,82
32.0,7730.0,155784.0,16.0,text,82
32.0,1671.0,158463.0,17.0,text,82
32.0,2890.0,221502.0,31.0,text,82
32.0,1921.0,275255.0,45.0,text,82
32.0,1800.0,328463.0,59.0,text,82
32.0,2033.0,372870.0,73.0,text,82
32.0,1586.0,418454.0,87.0,text,82
32.0,1425.0,463222.0,101.0,text,82
32.0,1513.0,504022.0,115.0,text,82
32.0,1480.0,544749.0,129.0,text,82
32.0,3290.0,584078.0,142.0,text,82
32.0,2664.0,630382.0,157.0,text,82
32.0,25589.0,25595.0,0.0,text,83
32.0,20374.0,46985.0,1.0,text,83
81.0,39769.0,87762.0,2.0,text,83
32.0,370589.0,564998.0,4.0,text,83
32.0,13776.0,637418.0,14.0,text,83
32.0,1045.0,639470.0,15.0,text,83
32.0,2801.0,720391.0,29.0,text,83
32.0,1807.0,775164.0,43.0,text,83
32.0,2430.0,817057.0,57.0,text,83
32.0,1391.0,859260.0,71.0,text,83
32.0,786.0,899531.0,85.0,text,83
32.0,3266.0,938336.0,99.0,text,83
32.0,874.0,1021076.0,113.0,text,83
32.0,1429.0,1062060.0,127.0,text,83
32.0,1352.0,1096246.0,140.0,text,83
32.0,115940.0,1257053.0,155.0,text,83
32.0,3618.0,3622.0,0.0,text,84
32.0,12265.0,16897.0,1.0,text,84
81.0,128596.0,146502.0,2.0,text,84
32.0,2041.0,163799.0,4.0,text,84
32.0,25469.0,254094.0,14.0,text,84
32.0,927.0,256026.0,15.0,text,84
32.0,2138.0,353568.0,29.0,text,84
32.0,888.0,456311.0,43.0,text,84
32.0,1283.0,553669.0,57.0,text,84
32.0,847.0,665649.0,71.0,text,84
32.0,1222.0,762669.0,85.0,text,84
32.0,1067.0,904150.0,99.0,text,84
32.0,1028.0,1112213.0,113.0,text,84
32.0,948.0,1239876.0,127.0,text,84
32.0,2180.0,1375801.0,140.0,text,84
32.0,1551.0,1525654.0,155.0,text,84
32.0,5308.0,5321.0,0.0,text,85
32.0,53765.0,60107.0,1.0,text,85
81.0,79706.0,140834.0,2.0,text,85
81.0,27665.0,198276.0,4.0,text,85
32.0,3633.0,220581.0,6.0,text,85
32.0,17123.0,322083.0,16.0,text,85
32.0,2570.0,325664.0,17.0,text,85
32.0,62951.0,491347.0,31.0,text,85
32.0,6223.0,668722.0,45.0,text,85
32.0,5811.0,763458.0,59.0,text,85
32.0,1119.0,855404.0,73.0,text,85
32.0,1449.0,942325.0,87.0,text,85
32.0,1160.0,1028962.0,101.0,text,85
32.0,1009.0,1128096.0,115.0,text,85
32.0,1210.0,1232146.0,129.0,text,85
32.0,5712.0,1335739.0,142.0,text,85
32.0,7062.0,1402675.0,157.0,text,85
32.0,19870.0,19875.0,0.0,text,86
32.0,50489.0,71400.0,1.0,text,86
81.0,32477.0,104915.0,2.0,text,86
32.0,2199.0,143713.0,4.0,text,86
32.0,52941.0,275376.0,14.0,text,86
32.0,3043.0,279426.0,15.0,text,86
32.0,4803.0,384210.0,29.0,text,86
32.0,11005.0,538264.0,43.0,text,86
32.0,2317.0,700449.0,57.0,text,86
32.0,3077.0,800690.0,71.0,text,86
32.0,883.0,899435.0,85.0,text,86
32.0,1853.0,1030308.0,99.0,text,86
32.0,2816.0,1124811.0,113.0,text,86
32.0,1754.0,1234059.0,127.0,text,86
32.0,5161.0,1343732.0,140.0,text,86
32.0,2577.0,1419708.0,155.0,text,86
32.0,5989.0,6010.0,0.0,text,87
32.0,17829.0,24872.0,1.0,text,87
81.0,124955.0,150851.0,2.0,text,87
32.0,5538.0,174154.0,4.0,text,87
32.0,9187.0,276267.0,14.0,text,87
32.0,1324.0,278609.0,15.0,text,87
32.0,2331.0,362618.0,29.0,text,87
32.0,1550.0,474698.0,43.0,text,87
32.0,20579.0,599664.0,57.0,text,87
32.0,1807.0,767898.0,71.0,text,87
32.0,1874.0,928975.0,85.0,text,87
32.0,2584.0,2588.0,0.0,text,88
32.0,18870.0,22463.0,1.0,text,88
81.0,29882.0,53351.0,2.0,text,88
81.0,17244.0,91344.0,4.0,text,88
32.0,1095.0,105689.0,6.0,text,88
32.0,2116.0,157100.0,16.0,text,88
32.0,1000.0,159107.0,17.0,text,88
32.0,517.0,199541.0,31.0,text,88
32.0,556.0,234203.0,45.0,text,88
32.0,597.0,264854.0,59.0,text,88
32.0,643.0,303417.0,73.0,text,88
32.0,461.0,334261.0,87.0,text,88
32.0,540.0,365234.0,101.0,text,88
32.0,1741.0,397945.0,115.0,text,88
32.0,232.0,431278.0,129.0,text,88
32.0,1012.0,463520.0,142.0,text,88
32.0,976.0,497455.0,157.0,text,88
32.0,1321.0,1325.0,0.0,text,89
32.0,24169.0,26500.0,1.0,text,89
81.0,11955.0,39460.0,2.0,text,89
81.0,9272.0,60803.0,4.0,text,89
32.0,1519.0,69315.0,6.0,text,89
32.0,1825.0,117700.0,16.0,text,89
32.0,676.0,119379.0,17.0,text,89
32.0,1444.0,186507.0,31.0,text,89
32.0,1212.0,252444.0,45.0,text,89
32.0,8379.0,8390.0,0.0,text,90
32.0,27122.0,36603.0,1.0,text,90
81.0,71208.0,108856.0,2.0,text,90
32.0,4607.0,165341.0,4.0,text,90
32.0,30617.0,271472.0,14.0,text,90
32.0,2232.0,274719.0,15.0,text,90
32.0,9813.0,359020.0,29.0,text,90
32.0,7261.0,439310.0,43.0,text,90
32.0,6395.0,524610.0,57.0,text,90
32.0,4963.0,621416.0,71.0,text,90
32.0,7176.0,714694.0,85.0,text,90
32.0,4362.0,797919.0,99.0,text,90
32.0,4962.0,902553.0,113.0,text,90
32.0,3976.0,1027494.0,127.0,text,90
32.0,2597.0,1118245.0,140.0,text,90
32.0,2469.0,1219163.0,155.0,text,90
32.0,42504.0,42510.0,0.0,text,91
32.0,27940.0,71467.0,1.0,text,91
81.0,26714.0,99197.0,2.0,text,91
32.0,5955.0,166778.0,4.0,text,91
32.0,10012.0,236200.0,14.0,text,91
32.0,1444.0,238650.0,15.0,text,91
32.0,2291.0,322581.0,29.0,text,91
32.0,11149.0,411338.0,43.0,text,91
32.0,1136.0,498596.0,57.0,text,91
32.0,1338.0,583019.0,71.0,text,91
32.0,13207.0,682925.0,85.0,text,91
32.0,2674.0,776068.0,99.0,text,91
32.0,3496.0,884746.0,113.0,text,91
32.0,2313.0,984756.0,127.0,text,91
32.0,8786.0,1093069.0,140.0,text,91
32.0,2510.0,1162995.0,155.0,text,91
32.0,1447.0,1450.0,0.0,text,92
32.0,23436.0,25891.0,1.0,text,92
81.0,32029.0,58929.0,2.0,text,92
81.0,10385.0,93108.0,4.0,text,92
81.0,14599.0,131381.0,6.0,text,92
32.0,2006.0,146706.0,8.0,text,92
32.0,7326.0,219472.0,18.0,text,92
32.0,1915.0,222391.0,19.0,text,92
32.0,3692.0,318611.0,33.0,text,92
32.0,661.0,397820.0,47.0,text,92
32.0,1099.0,461906.0,61.0,text,92
32.0,1339.0,571732.0,75.0,text,92
32.0,25997.0,671162.0,89.0,text,92
32.0,38614.0,800938.0,103.0,text,92
32.0,1044.0,1057530.0,117.0,text,92
32.0,11564.0,1206958.0,131.0,text,92
32.0,4858.0,1329813.0,144.0,text,92
32.0,3038.0,1371406.0,159.0,text,92
32.0,2341.0,2348.0,0.0,text,93
32.0,11591.0,14950.0,1.0,text,93
81.0,30241.0,46198.0,2.0,text,93
81.0,3351.0,65175.0,4.0,text,93
81.0,12022.0,85556.0,6.0,text,93
32.0,2372.0,104125.0,8.0,text,93
32.0,4971.0,172314.0,18.0,text,93
32.0,1000.0,174317.0,19.0,text,93
32.0,1785.0,241422.0,33.0,text,93
32.0,900.0,338830.0,47.0,text,93
32.0,1882.0,424602.0,61.0,text,93
32.0,1203.0,518863.0,75.0,text,93
32.0,1192.0,627355.0,89.0,text,93
32.0,1871.0,753549.0,103.0,text,93
32.0,778.0,835381.0,117.0,text,93
32.0,1553.0,925089.0,131.0,text,93
32.0,1917.0,1048861.0,144.0,text,93
32.0,497.0,1103644.0,159.0,text,93
32.0,3034.0,3037.0,0.0,text,94
32.0,18592.0,22633.0,1.0,text,94
81.0,36113.0,59753.0,2.0,text,94
81.0,11267.0,87256.0,4.0,text,94
32.0,1937.0,98568.0,6.0,text,94
32.0,46302.0,231969.0,16.0,text,94
32.0,2836.0,235813.0,17.0,text,94
32.0,19757.0,307605.0,31.0,text,94
32.0,613.0,351248.0,45.0,text,94
32.0,259.0,405451.0,59.0,text,94
32.0,17140.0,17147.0,0.0,text,95
32.0,13917.0,32088.0,1.0,text,95
81.0,4700.0,37796.0,2.0,text,95
81.0,56039.0,167323.0,4.0,text,95
32.0,6220.0,224067.0,6.0,text,95
32.0,8084.0,323531.0,16.0,text,95
32.0,2689.0,327231.0,17.0,text,95
32.0,1648.0,468268.0,31.0,text,95
32.0,1128.0,555117.0,45.0,text,95
32.0,981.0,664893.0,59.0,text,95
32.0,1109.0,736543.0,73.0,text,95
32.0,1040.0,844565.0,87.0,text,95
32.0,876.0,952077.0,101.0,text,95
32.0,957.0,1067696.0,115.0,text,95
32.0,735.0,1169958.0,129.0,text,95
32.0,781.0,1279207.0,142.0,text,95
32.0,1395.0,1410598.0,157.0,text,95
32.0,237482.0,237487.0,0.0,text,96
32.0,46099.0,284628.0,1.0,text,96
81.0,32160.0,317820.0,2.0,text,96
81.0,6471.0,340478.0,4.0,text,96
81.0,4320.0,364623.0,6.0,text,96
81.0,10186.0,384848.0,8.0,text,96
32.0,1126.0,394255.0,10.0,text,96
32.0,15526.0,470925.0,20.0,text,96
32.0,1162.0,473112.0,21.0,text,96
32.0,2323.0,571278.0,35.0,text,96
32.0,7396.0,673067.0,49.0,text,96
32.0,51988.0,948859.0,63.0,text,96
32.0,3705.0,1035092.0,77.0,text,96
32.0,19139.0,1137430.0,91.0,text,96
32.0,60154.0,1291974.0,105.0,text,96
32.0,11113.0,1391619.0,119.0,text,96
32.0,1112.0,1482871.0,133.0,text,96
32.0,5172.0,1569300.0,146.0,text,96
32.0,1777.0,1622605.0,161.0,text,96
32.0,4211.0,4220.0,0.0,text,97
32.0,9166.0,14401.0,1.0,text,97
81.0,30663.0,46080.0,2.0,text,97
81.0,26428.0,120197.0,4.0,text,97
32.0,1303.0,135203.0,6.0,text,97
32.0,9008.0,231776.0,16.0,text,97
32.0,1092.0,233879.0,17.0,text,97
32.0,8621.0,321130.0,31.0,text,97
32.0,1005.0,395489.0,45.0,text,97
32.0,2841.0,477396.0,59.0,text,97
32.0,8845.0,585773.0,73.0,text,97
32.0,544.0,686315.0,87.0,text,97
32.0,2756.0,778210.0,101.0,text,97
32.0,2972.0,877220.0,115.0,text,97
32.0,764.0,979046.0,129.0,text,97
32.0,1629.0,1070013.0,142.0,text,97
32.0,1940.0,1132124.0,157.0,text,97
32.0,3961.0,3963.0,0.0,text,98
32.0,18390.0,23364.0,1.0,text,98
81.0,63310.0,87681.0,2.0,text,98
32.0,3164.0,118425.0,4.0,text,98
32.0,19306.0,217589.0,14.0,text,98
32.0,1380.0,219976.0,15.0,text,98
32.0,2017.0,325116.0,29.0,text,98
32.0,1566.0,405518.0,43.0,text,98
32.0,1377.0,480238.0,57.0,text,98
32.0,1057.0,558063.0,71.0,text,98
32.0,977.0,634663.0,85.0,text,98
32.0,840.0,707066.0,99.0,text,98
32.0,977.0,788031.0,113.0,text,98
32.0,3127.0,870165.0,127.0,text,98
32.0,4624.0,955411.0,140.0,text,98
32.0,4424.0,1009770.0,155.0,text,98
32.0,4382.0,4386.0,0.0,text,99
32.0,19968.0,25357.0,1.0,text,99
81.0,41286.0,67646.0,2.0,text,99
32.0,2942.0,95382.0,4.0,text,99
32.0,14731.0,170080.0,14.0,text,99
32.0,1807.0,172891.0,15.0,text,99
32.0,2929.0,262088.0,29.0,text,99
32.0,725.0,335861.0,43.0,text,99
32.0,3424.0,412637.0,57.0,text,99
32.0,1941.0,492998.0,71.0,text,99
32.0,11897.0,596656.0,85.0,text,99
32.0,2547.0,680251.0,99.0,text,99
32.0,3725.0,765079.0,113.0,text,99
32.0,2508.0,853730.0,127.0,text,99
32.0,784.0,940744.0,140.0,text,99
32.0,4121.0,997895.0,155.0,text,99
32.0,13516.0,13542.0,0.0,text,100
32.0,12123.0,26701.0,1.0,text,100
81.0,63517.0,91238.0,2.0,text,100
32.0,2845.0,126954.0,4.0,text,100
32.0,1626.0,174004.0,14.0,text,100
32.0,1124.0,176147.0,15.0,text,100
32.0,2.0,219399.0,29.0,text,100
32.0,177.0,252049.0,43.0,text,100
32.0,339.0,291411.0,57.0,text,100
32.0,4624.0,331367.0,71.0,text,100
32.0,195.0,371902.0,85.0,text,100
32.0,65.0,402621.0,99.0,text,100
32.0,220.0,432917.0,113.0,text,100
32.0,1696.0,462292.0,127.0,text,100
32.0,301.0,488452.0,140.0,text,100
32.0,1887.0,520900.0,155.0,text,100
32.0,5656.0,5659.0,0.0,text,101
32.0,17821.0,24495.0,1.0,text,101
81.0,46126.0,71635.0,2.0,text,101
81.0,16718.0,109870.0,4.0,text,101
32.0,4393.0,128512.0,6.0,text,101
32.0,6378.0,203766.0,16.0,text,101
32.0,2008.0,206819.0,17.0,text,101
32.0,3519.0,290580.0,31.0,text,101
32.0,4064.0,372632.0,45.0,text,101
32.0,2653.0,462096.0,59.0,text,101
32.0,683.0,539643.0,73.0,text,101
32.0,1118.0,624761.0,87.0,text,101
32.0,1278.0,718239.0,101.0,text,101
32.0,801.0,809239.0,115.0,text,101
32.0,2014.0,907797.0,129.0,text,101
32.0,310.0,1005045.0,142.0,text,101
32.0,3531.0,1076798.0,157.0,text,101
32.0,2858.0,2861.0,0.0,text,102
32.0,12823.0,16694.0,1.0,text,102
81.0,33651.0,51351.0,2.0,text,102
32.0,2517.0,82307.0,4.0,text,102
32.0,6453.0,157910.0,14.0,text,102
32.0,990.0,159907.0,15.0,text,102
32.0,1370.0,231747.0,29.0,text,102
32.0,2815.0,2822.0,0.0,text,103
32.0,1477.0,5308.0,1.0,text,103
81.0,71079.0,77390.0,2.0,text,103
32.0,2171.0,91294.0,4.0,text,103
32.0,13304.0,162199.0,14.0,text,103
32.0,2707.0,165917.0,15.0,text,103
32.0,1610.0,237683.0,29.0,text,103
32.0,187.0,297649.0,43.0,text,103
32.0,1066.0,347473.0,57.0,text,103
32.0,234.0,397201.0,71.0,text,103
32.0,1308.0,440487.0,85.0,text,103
32.0,918.0,486355.0,99.0,text,103
32.0,1213.0,528572.0,113.0,text,103
32.0,1137.0,579923.0,127.0,text,103
32.0,1467.0,625659.0,140.0,text,103
32.0,1411.0,687268.0,155.0,text,103
32.0,213608.0,213614.0,0.0,text,104
32.0,23543.0,238195.0,1.0,text,104
81.0,38838.0,278062.0,2.0,text,104
32.0,39035.0,39039.0,0.0,text,105
32.0,12557.0,52604.0,1.0,text,105
81.0,29444.0,83056.0,2.0,text,105
81.0,14609.0,123193.0,4.0,text,105
32.0,4929.0,146830.0,6.0,text,105
32.0,10692.0,220960.0,16.0,text,105
32.0,3562.0,225528.0,17.0,text,105
32.0,3226.0,317656.0,31.0,text,105
32.0,1428.0,408489.0,45.0,text,105
32.0,2943.0,492154.0,59.0,text,105
32.0,1412.0,569952.0,73.0,text,105
32.0,2927.0,651961.0,87.0,text,105
32.0,953.0,728877.0,101.0,text,105
32.0,1856.0,813353.0,115.0,text,105
32.0,845.0,896489.0,129.0,text,105
32.0,3978.0,984965.0,142.0,text,105
32.0,1691.0,1045198.0,157.0,text,105
32.0,3577.0,3582.0,0.0,text,106
32.0,14199.0,18788.0,1.0,text,106
81.0,32870.0,52668.0,2.0,text,106
32.0,3055.0,77021.0,4.0,text,106
32.0,7653.0,145332.0,14.0,text,106
32.0,5490.0,151828.0,15.0,text,106
32.0,2229.0,202110.0,29.0,text,106
32.0,1622.0,247612.0,43.0,text,106
32.0,934.0,289452.0,57.0,text,106
32.0,972.0,349109.0,71.0,text,106
32.0,835.0,407333.0,85.0,text,106
32.0,858.0,459540.0,99.0,text,106
32.0,1154.0,504870.0,113.0,text,106
32.0,740.0,559852.0,127.0,text,106
32.0,1586.0,606372.0,140.0,text,106
32.0,1042.0,661917.0,155.0,text,106
32.0,2515.0,2526.0,0.0,text,107
32.0,34555.0,38098.0,1.0,text,107
81.0,48208.0,87328.0,2.0,text,107
32.0,5605.0,116548.0,4.0,text,107
32.0,13904.0,190676.0,14.0,text,107
32.0,1256.0,192950.0,15.0,text,107
32.0,2329.0,246384.0,29.0,text,107
32.0,1459.0,300004.0,43.0,text,107
32.0,1356.0,349387.0,57.0,text,107
32.0,7071.0,409556.0,71.0,text,107
32.0,957.0,464072.0,85.0,text,107
32.0,902.0,514043.0,99.0,text,107
32.0,1318.0,581938.0,113.0,text,107
32.0,964.0,636556.0,127.0,text,107
32.0,1254.0,689162.0,140.0,text,107
32.0,870.0,755464.0,155.0,text,107
32.0,14985.0,14996.0,0.0,text,108
32.0,137393.0,153402.0,1.0,text,108
81.0,182003.0,336432.0,2.0,text,108
81.0,21237.0,439838.0,4.0,text,108
32.0,12591.0,460925.0,6.0,text,108
32.0,21091.0,583912.0,16.0,text,108
32.0,3702.0,588620.0,17.0,text,108
32.0,3490.0,701237.0,31.0,text,108
32.0,2351.0,801717.0,45.0,text,108
32.0,1763.0,910322.0,59.0,text,108
32.0,14393.0,1024008.0,73.0,text,108
32.0,2040.0,1123922.0,87.0,text,108
32.0,1994.0,1233107.0,101.0,text,108
32.0,4592.0,1332597.0,115.0,text,108
32.0,1879.0,1428688.0,129.0,text,108
32.0,5528.0,1541368.0,142.0,text,108
32.0,6719.0,1636144.0,157.0,text,108
32.0,1953.0,1958.0,0.0,text,109
32.0,12802.0,15790.0,1.0,text,109
81.0,17104.0,33910.0,2.0,text,109
32.0,1621.0,51948.0,4.0,text,109
32.0,5362.0,109805.0,14.0,text,109
32.0,851.0,111661.0,15.0,text,109
32.0,1770.0,182367.0,29.0,text,109
32.0,1001.0,245823.0,43.0,text,109
32.0,1169.0,314584.0,57.0,text,109
32.0,955.0,382093.0,71.0,text,109
32.0,279.0,451567.0,85.0,text,109
32.0,914.0,524128.0,99.0,text,109
32.0,856.0,1615779.0,113.0,text,109
32.0,1701.0,1697056.0,127.0,text,109
32.0,3150.0,1777698.0,140.0,text,109
32.0,1493.0,1817674.0,155.0,text,109
32.0,6799.0,6814.0,0.0,text,110
32.0,31795.0,39638.0,1.0,text,110
81.0,206066.0,246752.0,2.0,text,110
81.0,34602.0,325974.0,4.0,text,110
32.0,2077.0,346119.0,6.0,text,110
32.0,13657.0,416333.0,16.0,text,110
32.0,1791.0,419136.0,17.0,text,110
32.0,3375.0,501174.0,31.0,text,110
32.0,1033.0,574950.0,45.0,text,110
32.0,1659.0,642209.0,59.0,text,110
32.0,1089.0,716093.0,73.0,text,110
32.0,898.0,791181.0,87.0,text,110
32.0,718.0,872515.0,101.0,text,110
32.0,797.0,947305.0,115.0,text,110
32.0,1021.0,1029075.0,129.0,text,110
32.0,1620.0,1107794.0,142.0,text,110
32.0,1620.0,1168106.0,157.0,text,110
32.0,6932.0,6947.0,0.0,text,111
32.0,19794.0,27753.0,1.0,text,111
81.0,42019.0,70798.0,2.0,text,111
32.0,3576.0,106616.0,4.0,text,111
32.0,12605.0,186956.0,14.0,text,111
32.0,1573.0,189546.0,15.0,text,111
32.0,2750.0,285289.0,29.0,text,111
32.0,1837.0,351123.0,43.0,text,111
32.0,997.0,415317.0,57.0,text,111
32.0,876.0,480474.0,71.0,text,111
32.0,920.0,534439.0,85.0,text,111
32.0,789.0,600026.0,99.0,text,111
32.0,870.0,670224.0,113.0,text,111
32.0,803.0,750447.0,127.0,text,111
32.0,1403.0,824937.0,140.0,text,111
32.0,15932.0,948306.0,155.0,text,111
32.0,5994.0,6010.0,0.0,text,112
32.0,15405.0,22438.0,1.0,text,112
81.0,45926.0,69395.0,2.0,text,112
32.0,4116.0,106914.0,4.0,text,112
32.0,7808.0,173680.0,14.0,text,112
32.0,2790.0,177483.0,15.0,text,112
32.0,3637.0,254951.0,29.0,text,112
32.0,2077.0,330395.0,43.0,text,112
32.0,3894.0,407717.0,57.0,text,112
32.0,3184.0,485150.0,71.0,text,112
32.0,1115.0,563132.0,85.0,text,112
32.0,1901.0,647700.0,99.0,text,112
32.0,1272.0,735645.0,113.0,text,112
32.0,1090.0,819381.0,127.0,text,112
32.0,1320.0,908616.0,140.0,text,112
32.0,3986.0,964497.0,155.0,text,112
32.0,3373.0,3376.0,0.0,text,113
32.0,15275.0,19681.0,1.0,text,113
81.0,19098.0,39799.0,2.0,text,113
81.0,14749.0,79053.0,4.0,text,113
32.0,2607.0,97419.0,6.0,text,113
32.0,7268.0,158988.0,16.0,text,113
32.0,909.0,160907.0,17.0,text,113
32.0,2166.0,243933.0,31.0,text,113
32.0,903.0,319537.0,45.0,text,113
32.0,1280.0,398318.0,59.0,text,113
32.0,1500.0,476416.0,73.0,text,113
32.0,900.0,563663.0,87.0,text,113
32.0,1189.0,652063.0,101.0,text,113
32.0,1039.0,741821.0,115.0,text,113
32.0,2445.0,844842.0,129.0,text,113
32.0,8186.0,942922.0,142.0,text,113
32.0,2783.0,1004189.0,157.0,text,113
